File: Example_Raw_Data_Files/Electrodeposition/Co15-FTO_CP_-500µA_30min.txt
Time (s);WE(1).Potential (V);Corrected time (s);Index;WE(1).Current (A);Current range
3.49593;-0.947266;0;1;-0.000500305;1 mA
5.49593;-0.956421;2;3;-0.000500427;1 mA
7.49593;-0.959473;4;5;-0.000500427;1 mA
9.49593;-0.960083;6;7;-0.000500427;1 mA
11.4959;-0.959473;8;9;-0.000500427;1 mA
13.4959;-0.957947;10;11;-0.000500458;1 mA
15.4959;-0.955811;12;13;-0.000500458;1 mA
17.4959;-0.953064;14;15;-0.000500458;1 mA
19.4959;-0.950317;16;17;-0.000500427;1 mA
21.4959;-0.947266;18;19;-0.000500397;1 mA
23.4959;-0.944214;20;21;-0.000500458;1 mA
25.4959;-0.941162;22;23;-0.000500458;1 mA
27.4959;-0.93811;24;25;-0.000500397;1 mA
29.4959;-0.935059;26;27;-0.000500427;1 mA
31.4959;-0.932007;28;29;-0.000500458;1 mA
33.4959;-0.928955;30;31;-0.000500427;1 mA
35.4959;-0.926208;32;33;-0.000500397;1 mA
37.4959;-0.923462;34;35;-0.000500336;1 mA
39.4959;-0.921021;36;37;-0.000500336;1 mA
41.4959;-0.918579;38;39;-0.000500397;1 mA
43.4959;-0.916138;40;41;-0.000500336;1 mA
45.4959;-0.914001;42;43;-0.000500366;1 mA
47.4959;-0.911865;44;45;-0.000500336;1 mA
49.4959;-0.909729;46;47;-0.000500366;1 mA
51.4959;-0.907898;48;49;-0.000500366;1 mA
53.4959;-0.906067;50;51;-0.000500397;1 mA
55.4959;-0.904236;52;53;-0.000500366;1 mA
57.4959;-0.902405;54;55;-0.000500397;1 mA
59.4959;-0.900879;56;57;-0.000500336;1 mA
61.4959;-0.899353;58;59;-0.000500366;1 mA
63.4959;-0.897827;60;61;-0.000500336;1 mA
65.4959;-0.896301;62;63;-0.000500336;1 mA
67.4959;-0.894775;64;65;-0.000500366;1 mA
69.4959;-0.893555;66;67;-0.000500366;1 mA
71.4959;-0.892029;68;69;-0.000500366;1 mA
73.4959;-0.890808;70;71;-0.000500305;1 mA
75.4959;-0.889587;72;73;-0.000500275;1 mA
77.4959;-0.888367;74;75;-0.000500275;1 mA
79.4959;-0.887451;76;77;-0.000500336;1 mA
81.4959;-0.88623;78;79;-0.000500336;1 mA
83.4959;-0.88501;80;81;-0.000500305;1 mA
85.4959;-0.884094;82;83;-0.000500427;1 mA
87.4959;-0.882874;84;85;-0.000500244;1 mA
89.4959;-0.881958;86;87;-0.000500336;1 mA
91.4959;-0.881042;88;89;-0.000500305;1 mA
93.4959;-0.880127;90;91;-0.000500336;1 mA
95.4959;-0.879211;92;93;-0.000500305;1 mA
97.4959;-0.878296;94;95;-0.000500305;1 mA
99.4959;-0.87738;96;97;-0.000500275;1 mA
101.496;-0.876465;98;99;-0.000500336;1 mA
103.496;-0.875854;100;101;-0.000500275;1 mA
105.496;-0.874939;102;103;-0.000500275;1 mA
107.496;-0.874023;104;105;-0.000500336;1 mA
109.496;-0.873413;106;107;-0.000500336;1 mA
111.496;-0.872498;108;109;-0.000500305;1 mA
113.496;-0.871887;110;111;-0.000500244;1 mA
115.496;-0.871277;112;113;-0.000500244;1 mA
117.496;-0.870361;114;115;-0.000500336;1 mA
119.496;-0.869751;116;117;-0.000500244;1 mA
121.496;-0.869141;118;119;-0.000500336;1 mA
123.496;-0.86853;120;121;-0.000500305;1 mA
125.496;-0.867615;122;123;-0.000500275;1 mA
127.496;-0.867004;124;125;-0.000500275;1 mA
129.496;-0.866394;126;127;-0.000500244;1 mA
131.496;-0.865784;128;129;-0.000500305;1 mA
133.496;-0.865173;130;131;-0.000500244;1 mA
135.496;-0.864563;132;133;-0.000500214;1 mA
137.496;-0.863953;134;135;-0.000500305;1 mA
139.496;-0.863647;136;137;-0.000500214;1 mA
141.496;-0.863037;138;139;-0.000500275;1 mA
143.496;-0.862427;140;141;-0.000500275;1 mA
145.496;-0.861816;142;143;-0.000500275;1 mA
147.496;-0.861206;144;145;-0.000500214;1 mA
149.496;-0.860901;146;147;-0.000500305;1 mA
151.496;-0.860291;148;149;-0.000500275;1 mA
153.496;-0.85968;150;151;-0.000500275;1 mA
155.496;-0.859375;152;153;-0.000500214;1 mA
157.496;-0.858765;154;155;-0.000500183;1 mA
159.496;-0.858154;156;157;-0.000500244;1 mA
161.496;-0.857849;158;159;-0.000500305;1 mA
163.496;-0.857239;160;161;-0.000500275;1 mA
165.496;-0.856934;162;163;-0.000500305;1 mA
167.496;-0.856323;164;165;-0.000500244;1 mA
169.496;-0.856018;166;167;-0.000500214;1 mA
171.496;-0.855408;168;169;-0.000500214;1 mA
173.496;-0.855103;170;171;-0.000500183;1 mA
175.496;-0.854797;172;173;-0.000500183;1 mA
177.496;-0.854187;174;175;-0.000500183;1 mA
179.496;-0.853882;176;177;-0.000500244;1 mA
181.496;-0.853271;178;179;-0.000500153;1 mA
183.496;-0.852966;180;181;-0.000500183;1 mA
185.496;-0.852661;182;183;-0.000500153;1 mA
187.496;-0.852356;184;185;-0.000500183;1 mA
189.496;-0.851746;186;187;-0.000500244;1 mA
191.496;-0.85144;188;189;-0.000500214;1 mA
193.496;-0.851135;190;191;-0.000500153;1 mA
195.496;-0.85083;192;193;-0.000500153;1 mA
197.496;-0.85022;194;195;-0.000500214;1 mA
199.496;-0.849915;196;197;-0.000500244;1 mA
201.496;-0.849609;198;199;-0.000500214;1 mA
203.496;-0.849304;200;201;-0.000500183;1 mA
205.496;-0.848999;202;203;-0.000500244;1 mA
207.496;-0.848694;204;205;-0.000500183;1 mA
209.496;-0.848083;206;207;-0.000500183;1 mA
211.496;-0.847778;208;209;-0.000500183;1 mA
213.496;-0.847473;210;211;-0.000500153;1 mA
215.496;-0.847168;212;213;-0.000500183;1 mA
217.496;-0.846863;214;215;-0.000500183;1 mA
219.496;-0.846558;216;217;-0.000500153;1 mA
221.496;-0.846252;218;219;-0.000500153;1 mA
223.496;-0.845947;220;221;-0.000500214;1 mA
225.496;-0.845642;222;223;-0.000500153;1 mA
227.496;-0.845337;224;225;-0.000500244;1 mA
229.496;-0.845032;226;227;-0.000500153;1 mA
231.496;-0.844727;228;229;-0.000500183;1 mA
233.496;-0.844421;230;231;-0.000500214;1 mA
235.496;-0.844116;232;233;-0.000500183;1 mA
237.496;-0.843811;234;235;-0.000500153;1 mA
239.496;-0.843506;236;237;-0.000500153;1 mA
241.496;-0.843201;238;239;-0.000500183;1 mA
243.496;-0.842896;240;241;-0.000500153;1 mA
245.496;-0.84259;242;243;-0.000500153;1 mA
247.496;-0.84259;244;245;-0.000500122;1 mA
249.496;-0.842285;246;247;-0.000500153;1 mA
251.496;-0.84198;248;249;-0.000500153;1 mA
253.496;-0.841675;250;251;-0.000500122;1 mA
255.496;-0.84137;252;253;-0.000500092;1 mA
257.496;-0.841064;254;255;-0.000500214;1 mA
259.496;-0.840759;256;257;-0.000500122;1 mA
261.496;-0.840454;258;259;-0.000500122;1 mA
263.496;-0.840454;260;261;-0.000500092;1 mA
265.496;-0.840149;262;263;-0.000500122;1 mA
267.496;-0.839844;264;265;-0.000500153;1 mA
269.496;-0.839539;266;267;-0.000500183;1 mA
271.496;-0.839233;268;269;-0.000500122;1 mA
273.496;-0.839233;270;271;-0.000500183;1 mA
275.496;-0.838928;272;273;-0.000500092;1 mA
277.496;-0.838623;274;275;-0.000500122;1 mA
279.496;-0.838318;276;277;-0.000500183;1 mA
281.496;-0.838318;278;279;-0.000500092;1 mA
283.496;-0.838013;280;281;-0.000500092;1 mA
285.496;-0.837708;282;283;-0.000500122;1 mA
287.496;-0.837402;284;285;-0.000500183;1 mA
289.496;-0.837402;286;287;-0.000500092;1 mA
291.496;-0.837097;288;289;-0.000500092;1 mA
293.496;-0.836792;290;291;-0.000500122;1 mA
295.496;-0.836792;292;293;-0.000500061;1 mA
297.496;-0.836487;294;295;-0.000500092;1 mA
299.496;-0.836182;296;297;-0.000500122;1 mA
301.496;-0.836182;298;299;-0.000500122;1 mA
303.496;-0.835876;300;301;-0.000500092;1 mA
305.496;-0.835571;302;303;-0.000500153;1 mA
307.496;-0.835571;304;305;-0.000500122;1 mA
309.496;-0.835266;306;307;-0.000500092;1 mA
311.496;-0.834961;308;309;-0.000500122;1 mA
313.496;-0.834961;310;311;-0.000500092;1 mA
315.496;-0.834656;312;313;-0.000500092;1 mA
317.496;-0.834656;314;315;-0.000500061;1 mA
319.496;-0.834351;316;317;-0.000500153;1 mA
321.496;-0.834045;318;319;-0.000500092;1 mA
323.496;-0.834045;320;321;-0.000500092;1 mA
325.496;-0.83374;322;323;-0.000500122;1 mA
327.496;-0.833435;324;325;-0.000500122;1 mA
329.496;-0.833435;326;327;-0.000500061;1 mA
331.496;-0.83313;328;329;-0.000500061;1 mA
333.496;-0.83313;330;331;-0.000500092;1 mA
335.496;-0.832825;332;333;-0.000500031;1 mA
337.496;-0.832825;334;335;-0.000500061;1 mA
339.496;-0.83252;336;337;-0.000500031;1 mA
341.496;-0.832214;338;339;-0.000500092;1 mA
343.496;-0.832214;340;341;-0.000500061;1 mA
345.496;-0.831909;342;343;-0.000500061;1 mA
347.496;-0.831909;344;345;-0.000500092;1 mA
349.496;-0.831604;346;347;-0.000500061;1 mA
351.496;-0.831604;348;349;-0.000500031;1 mA
353.496;-0.831299;350;351;-0.000500061;1 mA
355.496;-0.830994;352;353;-0.000500092;1 mA
357.496;-0.830994;354;355;-0.000500031;1 mA
359.496;-0.830688;356;357;-0.000500031;1 mA
361.496;-0.830688;358;359;-0.000500061;1 mA
363.496;-0.830383;360;361;-0.000500092;1 mA
365.496;-0.830383;362;363;-0.000500061;1 mA
367.496;-0.830078;364;365;-0.000500031;1 mA
369.496;-0.830078;366;367;-0.000500092;1 mA
371.496;-0.829773;368;369;-0.0005;1 mA
373.496;-0.829773;370;371;-0.000500061;1 mA
375.496;-0.829468;372;373;-0.000500061;1 mA
377.496;-0.829468;374;375;-0.000500031;1 mA
379.496;-0.829163;376;377;-0.000500061;1 mA
381.496;-0.829163;378;379;-0.000500092;1 mA
383.496;-0.828857;380;381;-0.000500031;1 mA
385.496;-0.828857;382;383;-0.000500122;1 mA
387.496;-0.828552;384;385;-0.000500031;1 mA
389.496;-0.828552;386;387;-0.000500031;1 mA
391.496;-0.828247;388;389;-0.0005;1 mA
393.496;-0.828247;390;391;-0.000500061;1 mA
395.496;-0.827942;392;393;-0.0005;1 mA
397.496;-0.827942;394;395;-0.000500031;1 mA
399.496;-0.827942;396;397;-0.0005;1 mA
401.496;-0.827637;398;399;-0.0005;1 mA
403.496;-0.827637;400;401;-0.0005;1 mA
405.496;-0.827332;402;403;-0.000500092;1 mA
407.496;-0.827332;404;405;-0.000500061;1 mA
409.496;-0.827026;406;407;-0.000500031;1 mA
411.496;-0.827026;408;409;-0.000500031;1 mA
413.496;-0.827026;410;411;-0.000500031;1 mA
415.496;-0.826721;412;413;-0.0005;1 mA
417.496;-0.826721;414;415;-0.000500031;1 mA
419.496;-0.826416;416;417;-0.0005;1 mA
421.496;-0.826416;418;419;-0.000500061;1 mA
423.496;-0.826111;420;421;-0.000500061;1 mA
425.496;-0.826111;422;423;-0.0005;1 mA
427.496;-0.826111;424;425;-0.000500031;1 mA
429.496;-0.825806;426;427;-0.000500061;1 mA
431.496;-0.825806;428;429;-0.000500031;1 mA
433.496;-0.8255;430;431;-0.0005;1 mA
435.496;-0.8255;432;433;-0.0005;1 mA
437.496;-0.8255;434;435;-0.0005;1 mA
439.496;-0.825195;436;437;-0.000500031;1 mA
441.496;-0.825195;438;439;-0.000500031;1 mA
443.496;-0.825195;440;441;-0.000500061;1 mA
445.496;-0.82489;442;443;-0.000500031;1 mA
447.496;-0.82489;444;445;-0.0005;1 mA
449.496;-0.824585;446;447;-0.0005;1 mA
451.496;-0.824585;448;449;-0.000500061;1 mA
453.496;-0.824585;450;451;-0.000500092;1 mA
455.496;-0.82428;452;453;-0.000500031;1 mA
457.496;-0.82428;454;455;-0.0005;1 mA
459.496;-0.82428;456;457;-0.0005;1 mA
461.496;-0.823975;458;459;-0.0005;1 mA
463.496;-0.823975;460;461;-0.0005;1 mA
465.496;-0.823975;462;463;-0.0005;1 mA
467.496;-0.823669;464;465;-0.0005;1 mA
469.496;-0.823669;466;467;-0.000500031;1 mA
471.496;-0.823669;468;469;-0.000500061;1 mA
473.496;-0.823364;470;471;-0.000500031;1 mA
475.496;-0.823364;472;473;-0.000500031;1 mA
477.496;-0.823364;474;475;-0.000500092;1 mA
479.496;-0.823059;476;477;-0.0005;1 mA
481.496;-0.823059;478;479;-0.000499969;1 mA
483.496;-0.823059;480;481;-0.000500061;1 mA
485.496;-0.823059;482;483;-0.000500061;1 mA
487.496;-0.822754;484;485;-0.0005;1 mA
489.496;-0.822754;486;487;-0.0005;1 mA
491.496;-0.822754;488;489;-0.000500061;1 mA
493.496;-0.822449;490;491;-0.0005;1 mA
495.496;-0.822449;492;493;-0.0005;1 mA
497.496;-0.822449;494;495;-0.0005;1 mA
499.496;-0.822144;496;497;-0.0005;1 mA
501.496;-0.822144;498;499;-0.0005;1 mA
503.496;-0.822144;500;501;-0.000500031;1 mA
505.496;-0.822144;502;503;-0.0005;1 mA
507.496;-0.821838;504;505;-0.000500031;1 mA
509.496;-0.821838;506;507;-0.000500061;1 mA
511.496;-0.821838;508;509;-0.0005;1 mA
513.496;-0.821533;510;511;-0.0005;1 mA
515.496;-0.821533;512;513;-0.0005;1 mA
517.496;-0.821533;514;515;-0.0005;1 mA
519.496;-0.821533;516;517;-0.0005;1 mA
521.496;-0.821228;518;519;-0.0005;1 mA
523.496;-0.821228;520;521;-0.0005;1 mA
525.496;-0.821228;522;523;-0.000500061;1 mA
527.496;-0.820923;524;525;-0.000500031;1 mA
529.496;-0.820923;526;527;-0.000500031;1 mA
531.496;-0.820923;528;529;-0.0005;1 mA
533.496;-0.820923;530;531;-0.0005;1 mA
535.496;-0.820618;532;533;-0.0005;1 mA
537.496;-0.820618;534;535;-0.0005;1 mA
539.496;-0.820618;536;537;-0.0005;1 mA
541.496;-0.820618;538;539;-0.0005;1 mA
543.496;-0.820618;540;541;-0.0005;1 mA
545.496;-0.8203125;542;543;-0.0005;1 mA
547.496;-0.8203125;544;545;-0.0005;1 mA
549.496;-0.8203125;546;547;-0.0005;1 mA
551.496;-0.8203125;548;549;-0.0005;1 mA
553.496;-0.820007;550;551;-0.0005;1 mA
555.496;-0.820007;552;553;-0.0005;1 mA
557.496;-0.820007;554;555;-0.0005;1 mA
559.496;-0.820007;556;557;-0.0005;1 mA
561.496;-0.819702;558;559;-0.0005;1 mA
563.496;-0.819702;560;561;-0.0005;1 mA
565.496;-0.819702;562;563;-0.0005;1 mA
567.496;-0.819702;564;565;-0.0005;1 mA
569.496;-0.819702;566;567;-0.0005;1 mA
571.496;-0.819397;568;569;-0.0005;1 mA
573.496;-0.819397;570;571;-0.000499969;1 mA
575.496;-0.819397;572;573;-0.0005;1 mA
577.496;-0.819397;574;575;-0.0005;1 mA
579.496;-0.819397;576;577;-0.000499969;1 mA
581.496;-0.819092;578;579;-0.0005;1 mA
583.496;-0.819092;580;581;-0.000500031;1 mA
585.496;-0.819092;582;583;-0.000500031;1 mA
587.496;-0.819092;584;585;-0.0005;1 mA
589.496;-0.819092;586;587;-0.0005;1 mA
591.496;-0.818787;588;589;-0.0005;1 mA
593.496;-0.818787;590;591;-0.000499939;1 mA
595.496;-0.818787;592;593;-0.0005;1 mA
597.496;-0.818787;594;595;-0.0005;1 mA
599.496;-0.818787;596;597;-0.0005;1 mA
601.496;-0.818787;598;599;-0.000499969;1 mA
603.496;-0.818481;600;601;-0.000499969;1 mA
605.496;-0.818481;602;603;-0.000499939;1 mA
607.496;-0.818481;604;605;-0.0005;1 mA
609.496;-0.818481;606;607;-0.0005;1 mA
611.496;-0.818481;608;609;-0.000500031;1 mA
613.496;-0.818481;610;611;-0.0005;1 mA
615.496;-0.818176;612;613;-0.0005;1 mA
617.496;-0.818176;614;615;-0.0005;1 mA
619.496;-0.818176;616;617;-0.000499969;1 mA
621.496;-0.818176;618;619;-0.0005;1 mA
623.496;-0.818176;620;621;-0.000499969;1 mA
625.496;-0.817871;622;623;-0.000499969;1 mA
627.496;-0.817871;624;625;-0.000499969;1 mA
629.496;-0.817871;626;627;-0.0005;1 mA
631.496;-0.817871;628;629;-0.0005;1 mA
633.496;-0.817871;630;631;-0.000499969;1 mA
635.496;-0.817871;632;633;-0.000499969;1 mA
637.496;-0.817871;634;635;-0.0005;1 mA
639.496;-0.817566;636;637;-0.000499969;1 mA
641.496;-0.817566;638;639;-0.000499969;1 mA
643.496;-0.817566;640;641;-0.000499969;1 mA
645.496;-0.817566;642;643;-0.0005;1 mA
647.496;-0.817566;644;645;-0.0005;1 mA
649.496;-0.817566;646;647;-0.000499969;1 mA
651.496;-0.817566;648;649;-0.000499939;1 mA
653.496;-0.817261;650;651;-0.0005;1 mA
655.496;-0.817261;652;653;-0.000499908;1 mA
657.496;-0.817261;654;655;-0.0005;1 mA
659.496;-0.817261;656;657;-0.000499969;1 mA
661.496;-0.817261;658;659;-0.000499969;1 mA
663.496;-0.817261;660;661;-0.0005;1 mA
665.496;-0.817261;662;663;-0.000499939;1 mA
667.496;-0.817261;664;665;-0.000499969;1 mA
669.496;-0.816956;666;667;-0.000499969;1 mA
671.496;-0.816956;668;669;-0.000499939;1 mA
673.496;-0.816956;670;671;-0.0005;1 mA
675.496;-0.816956;672;673;-0.0005;1 mA
677.496;-0.816956;674;675;-0.000499878;1 mA
679.496;-0.816956;676;677;-0.0005;1 mA
681.496;-0.816956;678;679;-0.000499969;1 mA
683.496;-0.816956;680;681;-0.000499969;1 mA
685.496;-0.816956;682;683;-0.000499939;1 mA
687.496;-0.81665;684;685;-0.000499969;1 mA
689.496;-0.81665;686;687;-0.000499969;1 mA
691.496;-0.81665;688;689;-0.0005;1 mA
693.496;-0.81665;690;691;-0.0005;1 mA
695.496;-0.81665;692;693;-0.0005;1 mA
697.496;-0.81665;694;695;-0.0005;1 mA
699.496;-0.81665;696;697;-0.000499939;1 mA
701.496;-0.81665;698;699;-0.000499939;1 mA
703.496;-0.81665;700;701;-0.000499969;1 mA
705.496;-0.816345;702;703;-0.000499908;1 mA
707.496;-0.816345;704;705;-0.000499939;1 mA
709.496;-0.816345;706;707;-0.000499878;1 mA
711.496;-0.816345;708;709;-0.000499969;1 mA
713.496;-0.816345;710;711;-0.000499939;1 mA
715.496;-0.816345;712;713;-0.000499969;1 mA
717.496;-0.816345;714;715;-0.000499939;1 mA
719.496;-0.816345;716;717;-0.000499969;1 mA
721.496;-0.816345;718;719;-0.000499969;1 mA
723.496;-0.816345;720;721;-0.0005;1 mA
725.496;-0.816345;722;723;-0.0005;1 mA
727.496;-0.81604;724;725;-0.000499969;1 mA
729.496;-0.81604;726;727;-0.0005;1 mA
731.496;-0.81604;728;729;-0.000499969;1 mA
733.496;-0.81604;730;731;-0.000499969;1 mA
735.496;-0.81604;732;733;-0.000499969;1 mA
737.496;-0.81604;734;735;-0.000499939;1 mA
739.496;-0.81604;736;737;-0.0005;1 mA
741.496;-0.81604;738;739;-0.000499939;1 mA
743.496;-0.81604;740;741;-0.000499939;1 mA
745.496;-0.81604;742;743;-0.000499939;1 mA
747.496;-0.81604;744;745;-0.000499939;1 mA
749.496;-0.81604;746;747;-0.000499969;1 mA
751.496;-0.815735;748;749;-0.0005;1 mA
753.496;-0.815735;750;751;-0.0005;1 mA
755.496;-0.815735;752;753;-0.000499939;1 mA
757.496;-0.815735;754;755;-0.000499939;1 mA
759.496;-0.815735;756;757;-0.000499969;1 mA
761.496;-0.815735;758;759;-0.000499908;1 mA
763.496;-0.815735;760;761;-0.000499908;1 mA
765.496;-0.815735;762;763;-0.0005;1 mA
767.496;-0.815735;764;765;-0.000499939;1 mA
769.496;-0.815735;766;767;-0.000499939;1 mA
771.496;-0.815735;768;769;-0.000499969;1 mA
773.496;-0.815735;770;771;-0.000499939;1 mA
775.496;-0.815735;772;773;-0.000499939;1 mA
777.496;-0.815735;774;775;-0.000499908;1 mA
779.496;-0.815735;776;777;-0.0005;1 mA
781.496;-0.81543;778;779;-0.000499939;1 mA
783.496;-0.81543;780;781;-0.000499939;1 mA
785.496;-0.81543;782;783;-0.000499969;1 mA
787.496;-0.81543;784;785;-0.000499969;1 mA
789.496;-0.81543;786;787;-0.000499908;1 mA
791.496;-0.81543;788;789;-0.0005;1 mA
793.496;-0.81543;790;791;-0.000499969;1 mA
795.496;-0.81543;792;793;-0.000499969;1 mA
797.496;-0.81543;794;795;-0.000499969;1 mA
799.496;-0.81543;796;797;-0.000499969;1 mA
801.496;-0.81543;798;799;-0.000499878;1 mA
803.496;-0.81543;800;801;-0.000499939;1 mA
805.496;-0.81543;802;803;-0.000499939;1 mA
807.496;-0.81543;804;805;-0.000499908;1 mA
809.496;-0.81543;806;807;-0.000499939;1 mA
811.496;-0.81543;808;809;-0.0005;1 mA
813.496;-0.81543;810;811;-0.000499969;1 mA
815.496;-0.81543;812;813;-0.000499939;1 mA
817.496;-0.815125;814;815;-0.000499939;1 mA
819.496;-0.815125;816;817;-0.000499908;1 mA
821.496;-0.815125;818;819;-0.000499939;1 mA
823.496;-0.815125;820;821;-0.000499908;1 mA
825.496;-0.815125;822;823;-0.000499969;1 mA
827.496;-0.815125;824;825;-0.000499878;1 mA
829.496;-0.815125;826;827;-0.000499908;1 mA
831.496;-0.815125;828;829;-0.000499939;1 mA
833.496;-0.815125;830;831;-0.0005;1 mA
835.496;-0.815125;832;833;-0.000499939;1 mA
837.496;-0.815125;834;835;-0.000499878;1 mA
839.496;-0.815125;836;837;-0.000499908;1 mA
841.496;-0.815125;838;839;-0.000499939;1 mA
843.496;-0.815125;840;841;-0.000499908;1 mA
845.496;-0.815125;842;843;-0.000499908;1 mA
847.496;-0.815125;844;845;-0.000499969;1 mA
849.496;-0.815125;846;847;-0.0005;1 mA
851.496;-0.815125;848;849;-0.000499847;1 mA
853.496;-0.815125;850;851;-0.000499908;1 mA
855.496;-0.815125;852;853;-0.000499908;1 mA
857.496;-0.815125;854;855;-0.000499939;1 mA
859.496;-0.815125;856;857;-0.000499969;1 mA
861.496;-0.815125;858;859;-0.000499847;1 mA
863.496;-0.815125;860;861;-0.000499969;1 mA
865.496;-0.815125;862;863;-0.000499969;1 mA
867.496;-0.815125;864;865;-0.000499939;1 mA
869.496;-0.815125;866;867;-0.000499969;1 mA
871.496;-0.815125;868;869;-0.000499878;1 mA
873.496;-0.815125;870;871;-0.000499939;1 mA
875.496;-0.815125;872;873;-0.000499939;1 mA
877.496;-0.815125;874;875;-0.000499908;1 mA
879.496;-0.815125;876;877;-0.000499969;1 mA
881.496;-0.815125;878;879;-0.000499908;1 mA
883.496;-0.815125;880;881;-0.0005;1 mA
885.496;-0.815125;882;883;-0.000499908;1 mA
887.496;-0.815125;884;885;-0.000499939;1 mA
889.496;-0.815125;886;887;-0.000499908;1 mA
891.496;-0.814819;888;889;-0.000499939;1 mA
893.496;-0.815125;890;891;-0.000499908;1 mA
895.496;-0.814819;892;893;-0.000499939;1 mA
897.496;-0.814819;894;895;-0.000499908;1 mA
899.496;-0.814819;896;897;-0.000499939;1 mA
901.496;-0.815125;898;899;-0.000499908;1 mA
903.496;-0.815125;900;901;-0.000499878;1 mA
905.496;-0.814819;902;903;-0.000499908;1 mA
907.496;-0.815125;904;905;-0.000499908;1 mA
909.496;-0.814819;906;907;-0.000499908;1 mA
911.496;-0.814819;908;909;-0.000499939;1 mA
913.496;-0.815125;910;911;-0.000499878;1 mA
915.496;-0.815125;912;913;-0.000499908;1 mA
917.496;-0.815125;914;915;-0.000499939;1 mA
919.496;-0.815125;916;917;-0.000499878;1 mA
921.496;-0.815125;918;919;-0.000499939;1 mA
923.496;-0.815125;920;921;-0.000499939;1 mA
925.496;-0.814819;922;923;-0.000499878;1 mA
927.496;-0.814819;924;925;-0.000499969;1 mA
929.496;-0.814819;926;927;-0.0005;1 mA
931.496;-0.815125;928;929;-0.000499969;1 mA
933.496;-0.815125;930;931;-0.000499969;1 mA
935.496;-0.814819;932;933;-0.000499969;1 mA
937.496;-0.814819;934;935;-0.000499969;1 mA
939.496;-0.815125;936;937;-0.000499939;1 mA
941.496;-0.815125;938;939;-0.0005;1 mA
943.496;-0.815125;940;941;-0.000499847;1 mA
945.496;-0.814819;942;943;-0.0005;1 mA
947.496;-0.815125;944;945;-0.000499908;1 mA
949.496;-0.815125;946;947;-0.000499969;1 mA
951.496;-0.815125;948;949;-0.000499908;1 mA
953.496;-0.815125;950;951;-0.000499939;1 mA
955.496;-0.815125;952;953;-0.000499969;1 mA
957.496;-0.815125;954;955;-0.000499847;1 mA
959.496;-0.815125;956;957;-0.000499939;1 mA
961.496;-0.815125;958;959;-0.000499939;1 mA
963.496;-0.815125;960;961;-0.000499969;1 mA
965.496;-0.815125;962;963;-0.000499969;1 mA
967.496;-0.815125;964;965;-0.000499878;1 mA
969.496;-0.815125;966;967;-0.000499878;1 mA
971.496;-0.815125;968;969;-0.000499908;1 mA
973.496;-0.815125;970;971;-0.000499908;1 mA
975.496;-0.815125;972;973;-0.000499878;1 mA
977.496;-0.815125;974;975;-0.000499908;1 mA
979.496;-0.815125;976;977;-0.000499847;1 mA
981.496;-0.815125;978;979;-0.000499847;1 mA
983.496;-0.815125;980;981;-0.000499939;1 mA
985.496;-0.815125;982;983;-0.000499847;1 mA
987.496;-0.815125;984;985;-0.000499908;1 mA
989.496;-0.815125;986;987;-0.000499908;1 mA
991.496;-0.815125;988;989;-0.000499939;1 mA
993.496;-0.815125;990;991;-0.000499908;1 mA
995.496;-0.815125;992;993;-0.000499969;1 mA
997.496;-0.815125;994;995;-0.000499878;1 mA
999.496;-0.815125;996;997;-0.000499908;1 mA
1001.5;-0.815125;998;999;-0.000499939;1 mA
1003.5;-0.815125;1000;1001;-0.000499908;1 mA
1005.5;-0.815125;1002;1003;-0.000499908;1 mA
1007.5;-0.815125;1004;1005;-0.000499817;1 mA
1009.5;-0.815125;1006;1007;-0.000499878;1 mA
1011.5;-0.815125;1008;1009;-0.000499939;1 mA
1013.5;-0.815125;1010;1011;-0.000499939;1 mA
1015.5;-0.815125;1012;1013;-0.000499908;1 mA
1017.5;-0.815125;1014;1015;-0.000499878;1 mA
1019.5;-0.815125;1016;1017;-0.000499939;1 mA
1021.5;-0.815125;1018;1019;-0.000499847;1 mA
1023.5;-0.815125;1020;1021;-0.000499939;1 mA
1025.5;-0.815125;1022;1023;-0.000499908;1 mA
1027.5;-0.815125;1024;1025;-0.000499908;1 mA
1029.5;-0.815125;1026;1027;-0.000499817;1 mA
1031.5;-0.81543;1028;1029;-0.000499908;1 mA
1033.5;-0.81543;1030;1031;-0.000499908;1 mA
1035.5;-0.81543;1032;1033;-0.000499969;1 mA
1037.5;-0.81543;1034;1035;-0.000499908;1 mA
1039.5;-0.81543;1036;1037;-0.000499939;1 mA
1041.5;-0.81543;1038;1039;-0.000499939;1 mA
1043.5;-0.81543;1040;1041;-0.000499878;1 mA
1045.5;-0.81543;1042;1043;-0.000499908;1 mA
1047.5;-0.81543;1044;1045;-0.000499878;1 mA
1049.5;-0.81543;1046;1047;-0.000499908;1 mA
1051.5;-0.81543;1048;1049;-0.000499939;1 mA
1053.5;-0.81543;1050;1051;-0.000499908;1 mA
1055.5;-0.81543;1052;1053;-0.000499878;1 mA
1057.5;-0.81543;1054;1055;-0.000499908;1 mA
1059.5;-0.81543;1056;1057;-0.000499969;1 mA
1061.5;-0.81543;1058;1059;-0.000499908;1 mA
1063.5;-0.81543;1060;1061;-0.000499878;1 mA
1065.5;-0.81543;1062;1063;-0.000499908;1 mA
1067.5;-0.81543;1064;1065;-0.000499878;1 mA
1069.5;-0.81543;1066;1067;-0.000499847;1 mA
1071.5;-0.81543;1068;1069;-0.000499939;1 mA
1073.5;-0.81543;1070;1071;-0.000499878;1 mA
1075.5;-0.81543;1072;1073;-0.000499878;1 mA
1077.5;-0.81543;1074;1075;-0.000499878;1 mA
1079.5;-0.81543;1076;1077;-0.000499908;1 mA
1081.5;-0.815735;1078;1079;-0.000499847;1 mA
1083.5;-0.81543;1080;1081;-0.000499908;1 mA
1085.5;-0.815735;1082;1083;-0.000499908;1 mA
1087.5;-0.815735;1084;1085;-0.000499939;1 mA
1089.5;-0.815735;1086;1087;-0.000499847;1 mA
1091.5;-0.815735;1088;1089;-0.000499817;1 mA
1093.5;-0.815735;1090;1091;-0.000499847;1 mA
1095.5;-0.815735;1092;1093;-0.000499878;1 mA
1097.5;-0.815735;1094;1095;-0.000499878;1 mA
1099.5;-0.815735;1096;1097;-0.000499969;1 mA
1101.5;-0.815735;1098;1099;-0.000499847;1 mA
1103.5;-0.815735;1100;1101;-0.000499908;1 mA
1105.5;-0.815735;1102;1103;-0.000499847;1 mA
1107.5;-0.815735;1104;1105;-0.000499908;1 mA
1109.5;-0.815735;1106;1107;-0.000499969;1 mA
1111.5;-0.815735;1108;1109;-0.000499908;1 mA
1113.5;-0.815735;1110;1111;-0.000499878;1 mA
1115.5;-0.815735;1112;1113;-0.000499939;1 mA
1117.5;-0.815735;1114;1115;-0.000499908;1 mA
1119.5;-0.815735;1116;1117;-0.000499878;1 mA
1121.5;-0.81604;1118;1119;-0.000499847;1 mA
1123.5;-0.81604;1120;1121;-0.000499878;1 mA
1125.5;-0.81604;1122;1123;-0.000499847;1 mA
1127.5;-0.81604;1124;1125;-0.000499908;1 mA
1129.5;-0.81604;1126;1127;-0.000499847;1 mA
1131.5;-0.81604;1128;1129;-0.000499908;1 mA
1133.5;-0.81604;1130;1131;-0.000499878;1 mA
1135.5;-0.81604;1132;1133;-0.000499908;1 mA
1137.5;-0.81604;1134;1135;-0.000499878;1 mA
1139.5;-0.81604;1136;1137;-0.000499908;1 mA
1141.5;-0.81604;1138;1139;-0.000499908;1 mA
1143.5;-0.81604;1140;1141;-0.000499908;1 mA
1145.5;-0.81604;1142;1143;-0.000499908;1 mA
1147.5;-0.81604;1144;1145;-0.000499847;1 mA
1149.5;-0.81604;1146;1147;-0.000499939;1 mA
1151.5;-0.81604;1148;1149;-0.000499939;1 mA
1153.5;-0.816345;1150;1151;-0.000499908;1 mA
1155.5;-0.816345;1152;1153;-0.000499908;1 mA
1157.5;-0.816345;1154;1155;-0.000499847;1 mA
1159.5;-0.816345;1156;1157;-0.000499878;1 mA
1161.5;-0.816345;1158;1159;-0.000499908;1 mA
1163.5;-0.816345;1160;1161;-0.000499847;1 mA
1165.5;-0.816345;1162;1163;-0.000499969;1 mA
1167.5;-0.816345;1164;1165;-0.000499908;1 mA
1169.5;-0.816345;1166;1167;-0.000499908;1 mA
1171.5;-0.816345;1168;1169;-0.000499878;1 mA
1173.5;-0.816345;1170;1171;-0.000499878;1 mA
1175.5;-0.816345;1172;1173;-0.000499878;1 mA
1177.5;-0.816345;1174;1175;-0.000499939;1 mA
1179.5;-0.816345;1176;1177;-0.000499878;1 mA
1181.5;-0.816345;1178;1179;-0.000499939;1 mA
1183.5;-0.816345;1180;1181;-0.000499908;1 mA
1185.5;-0.81665;1182;1183;-0.000499878;1 mA
1187.5;-0.81665;1184;1185;-0.000499908;1 mA
1189.5;-0.81665;1186;1187;-0.000499908;1 mA
1191.5;-0.81665;1188;1189;-0.000499908;1 mA
1193.5;-0.81665;1190;1191;-0.000499847;1 mA
1195.5;-0.81665;1192;1193;-0.000499878;1 mA
1197.5;-0.81665;1194;1195;-0.000499908;1 mA
1199.5;-0.81665;1196;1197;-0.000499939;1 mA
1201.5;-0.81665;1198;1199;-0.000499878;1 mA
1203.5;-0.81665;1200;1201;-0.000499878;1 mA
1205.5;-0.81665;1202;1203;-0.000499817;1 mA
1207.5;-0.81665;1204;1205;-0.000499847;1 mA
1209.5;-0.81665;1206;1207;-0.000499939;1 mA
1211.5;-0.81665;1208;1209;-0.000499939;1 mA
1213.5;-0.816956;1210;1211;-0.000499878;1 mA
1215.5;-0.816956;1212;1213;-0.000499939;1 mA
1217.5;-0.816956;1214;1215;-0.000499908;1 mA
1219.5;-0.816956;1216;1217;-0.000499847;1 mA
1221.5;-0.816956;1218;1219;-0.000499939;1 mA
1223.5;-0.816956;1220;1221;-0.000499817;1 mA
1225.5;-0.816956;1222;1223;-0.000499847;1 mA
1227.5;-0.816956;1224;1225;-0.000499878;1 mA
1229.5;-0.816956;1226;1227;-0.000499939;1 mA
1231.5;-0.816956;1228;1229;-0.000499847;1 mA
1233.5;-0.816956;1230;1231;-0.000499878;1 mA
1235.5;-0.816956;1232;1233;-0.000499878;1 mA
1237.5;-0.816956;1234;1235;-0.000499908;1 mA
1239.5;-0.817261;1236;1237;-0.000499847;1 mA
1241.5;-0.817261;1238;1239;-0.000499908;1 mA
1243.5;-0.817261;1240;1241;-0.000499878;1 mA
1245.5;-0.817261;1242;1243;-0.000499908;1 mA
1247.5;-0.817261;1244;1245;-0.000499908;1 mA
1249.5;-0.817261;1246;1247;-0.000499878;1 mA
1251.5;-0.817261;1248;1249;-0.000499878;1 mA
1253.5;-0.817261;1250;1251;-0.000499878;1 mA
1255.5;-0.817261;1252;1253;-0.000499817;1 mA
1257.5;-0.817261;1254;1255;-0.000499817;1 mA
1259.5;-0.817261;1256;1257;-0.000499847;1 mA
1261.5;-0.817261;1258;1259;-0.000499939;1 mA
1263.5;-0.817261;1260;1261;-0.000499908;1 mA
1265.5;-0.817261;1262;1263;-0.000499878;1 mA
1267.5;-0.817566;1264;1265;-0.000499847;1 mA
1269.5;-0.817566;1266;1267;-0.000499908;1 mA
1271.5;-0.817566;1268;1269;-0.000499847;1 mA
1273.5;-0.817566;1270;1271;-0.000499878;1 mA
1275.5;-0.817566;1272;1273;-0.000499908;1 mA
1277.5;-0.817566;1274;1275;-0.000499878;1 mA
1279.5;-0.817566;1276;1277;-0.000499908;1 mA
1281.5;-0.817566;1278;1279;-0.000499847;1 mA
1283.5;-0.817566;1280;1281;-0.000499939;1 mA
1285.5;-0.817566;1282;1283;-0.000499878;1 mA
1287.5;-0.817566;1284;1285;-0.000499939;1 mA
1289.5;-0.817566;1286;1287;-0.000499908;1 mA
1291.5;-0.817566;1288;1289;-0.000499939;1 mA
1293.5;-0.817871;1290;1291;-0.000499908;1 mA
1295.5;-0.817871;1292;1293;-0.000499908;1 mA
1297.5;-0.817871;1294;1295;-0.000499969;1 mA
1299.5;-0.817871;1296;1297;-0.000499908;1 mA
1301.5;-0.817871;1298;1299;-0.000499878;1 mA
1303.5;-0.817871;1300;1301;-0.000499878;1 mA
1305.5;-0.817871;1302;1303;-0.000499939;1 mA
1307.5;-0.817871;1304;1305;-0.000499908;1 mA
1309.5;-0.817871;1306;1307;-0.000499878;1 mA
1311.5;-0.817871;1308;1309;-0.000499878;1 mA
1313.5;-0.817871;1310;1311;-0.000499878;1 mA
1315.5;-0.817871;1312;1313;-0.000499878;1 mA
1317.5;-0.817871;1314;1315;-0.000499908;1 mA
1319.5;-0.818176;1316;1317;-0.000499908;1 mA
1321.5;-0.818176;1318;1319;-0.000499908;1 mA
1323.5;-0.818176;1320;1321;-0.000499847;1 mA
1325.5;-0.818176;1322;1323;-0.000499908;1 mA
1327.5;-0.818176;1324;1325;-0.000499969;1 mA
1329.5;-0.818176;1326;1327;-0.000499847;1 mA
1331.5;-0.818176;1328;1329;-0.000499908;1 mA
1333.5;-0.818176;1330;1331;-0.000499847;1 mA
1335.5;-0.818176;1332;1333;-0.000499908;1 mA
1337.5;-0.818176;1334;1335;-0.000499939;1 mA
1339.5;-0.818176;1336;1337;-0.000499939;1 mA
1341.5;-0.818176;1338;1339;-0.000499908;1 mA
1343.5;-0.818176;1340;1341;-0.000499847;1 mA
1345.5;-0.818481;1342;1343;-0.000499847;1 mA
1347.5;-0.818481;1344;1345;-0.000499939;1 mA
1349.5;-0.818481;1346;1347;-0.000499847;1 mA
1351.5;-0.818481;1348;1349;-0.000499908;1 mA
1353.5;-0.818481;1350;1351;-0.000499908;1 mA
1355.5;-0.818481;1352;1353;-0.000499939;1 mA
1357.5;-0.818481;1354;1355;-0.000499939;1 mA
1359.5;-0.818481;1356;1357;-0.000499878;1 mA
1361.5;-0.818481;1358;1359;-0.000499878;1 mA
1363.5;-0.818481;1360;1361;-0.000499878;1 mA
1365.5;-0.818481;1362;1363;-0.000499908;1 mA
1367.5;-0.818787;1364;1365;-0.000499847;1 mA
1369.5;-0.818787;1366;1367;-0.000499939;1 mA
1371.5;-0.818787;1368;1369;-0.000499847;1 mA
1373.5;-0.818787;1370;1371;-0.000499847;1 mA
1375.5;-0.818787;1372;1373;-0.000499847;1 mA
1377.5;-0.818787;1374;1375;-0.000499847;1 mA
1379.5;-0.818787;1376;1377;-0.000499908;1 mA
1381.5;-0.818787;1378;1379;-0.000499847;1 mA
1383.5;-0.818787;1380;1381;-0.000499908;1 mA
1385.5;-0.818787;1382;1383;-0.000499908;1 mA
1387.5;-0.818787;1384;1385;-0.000499847;1 mA
1389.5;-0.818787;1386;1387;-0.000499817;1 mA
1391.5;-0.818787;1388;1389;-0.000499847;1 mA
1393.5;-0.819092;1390;1391;-0.000499908;1 mA
1395.5;-0.819092;1392;1393;-0.000499878;1 mA
1397.5;-0.819092;1394;1395;-0.000499847;1 mA
1399.5;-0.819092;1396;1397;-0.000499878;1 mA
1401.5;-0.819092;1398;1399;-0.000499908;1 mA
1403.5;-0.819092;1400;1401;-0.000499878;1 mA
1405.5;-0.819092;1402;1403;-0.000499847;1 mA
1407.5;-0.819092;1404;1405;-0.000499817;1 mA
1409.5;-0.819092;1406;1407;-0.000499847;1 mA
1411.5;-0.819092;1408;1409;-0.000499878;1 mA
1413.5;-0.819092;1410;1411;-0.000499878;1 mA
1415.5;-0.819397;1412;1413;-0.000499908;1 mA
1417.5;-0.819397;1414;1415;-0.000499939;1 mA
1419.5;-0.819397;1416;1417;-0.000499908;1 mA
1421.5;-0.819397;1418;1419;-0.000499847;1 mA
1423.5;-0.819397;1420;1421;-0.000499908;1 mA
1425.5;-0.819397;1422;1423;-0.000499847;1 mA
1427.5;-0.819397;1424;1425;-0.000499939;1 mA
1429.5;-0.819397;1426;1427;-0.000499847;1 mA
1431.5;-0.819397;1428;1429;-0.000499847;1 mA
1433.5;-0.819397;1430;1431;-0.000499878;1 mA
1435.5;-0.819397;1432;1433;-0.000499878;1 mA
1437.5;-0.819702;1434;1435;-0.000499847;1 mA
1439.5;-0.819702;1436;1437;-0.000499908;1 mA
1441.5;-0.819702;1438;1439;-0.000499878;1 mA
1443.5;-0.819702;1440;1441;-0.000499908;1 mA
1445.5;-0.819702;1442;1443;-0.000499847;1 mA
1447.5;-0.819702;1444;1445;-0.000499939;1 mA
1449.5;-0.819702;1446;1447;-0.000499878;1 mA
1451.5;-0.819702;1448;1449;-0.000499878;1 mA
1453.5;-0.819702;1450;1451;-0.000499847;1 mA
1455.5;-0.819702;1452;1453;-0.000499908;1 mA
1457.5;-0.820007;1454;1455;-0.000499878;1 mA
1459.5;-0.820007;1456;1457;-0.000499878;1 mA
1461.5;-0.820007;1458;1459;-0.000499878;1 mA
1463.5;-0.820007;1460;1461;-0.000499908;1 mA
1465.5;-0.820007;1462;1463;-0.000499878;1 mA
1467.5;-0.820007;1464;1465;-0.000499878;1 mA
1469.5;-0.820007;1466;1467;-0.000499847;1 mA
1471.5;-0.820007;1468;1469;-0.000499847;1 mA
1473.5;-0.820007;1470;1471;-0.000499908;1 mA
1475.5;-0.820007;1472;1473;-0.000499847;1 mA
1477.5;-0.8203125;1474;1475;-0.000499847;1 mA
1479.5;-0.8203125;1476;1477;-0.000499878;1 mA
1481.5;-0.8203125;1478;1479;-0.000499878;1 mA
1483.5;-0.8203125;1480;1481;-0.000499847;1 mA
1485.5;-0.8203125;1482;1483;-0.000499969;1 mA
1487.5;-0.8203125;1484;1485;-0.000499908;1 mA
1489.5;-0.8203125;1486;1487;-0.000499847;1 mA
1491.5;-0.8203125;1488;1489;-0.000499939;1 mA
1493.5;-0.8203125;1490;1491;-0.000499847;1 mA
1495.5;-0.8203125;1492;1493;-0.000499817;1 mA
1497.5;-0.820618;1494;1495;-0.000499786;1 mA
1499.5;-0.820618;1496;1497;-0.000499908;1 mA
1501.5;-0.820618;1498;1499;-0.000499878;1 mA
1503.5;-0.820618;1500;1501;-0.000499878;1 mA
1505.5;-0.820618;1502;1503;-0.000499878;1 mA
1507.5;-0.820618;1504;1505;-0.000499878;1 mA
1509.5;-0.820618;1506;1507;-0.000499908;1 mA
1511.5;-0.820618;1508;1509;-0.000499908;1 mA
1513.5;-0.820618;1510;1511;-0.000499878;1 mA
1515.5;-0.820618;1512;1513;-0.000499878;1 mA
1517.5;-0.820618;1514;1515;-0.000499878;1 mA
1519.5;-0.820923;1516;1517;-0.000499847;1 mA
1521.5;-0.820923;1518;1519;-0.000499878;1 mA
1523.5;-0.820923;1520;1521;-0.000499847;1 mA
1525.5;-0.820923;1522;1523;-0.000499878;1 mA
1527.5;-0.820923;1524;1525;-0.000499847;1 mA
1529.5;-0.820923;1526;1527;-0.000499908;1 mA
1531.5;-0.820923;1528;1529;-0.000499847;1 mA
1533.5;-0.820923;1530;1531;-0.000499878;1 mA
1535.5;-0.820923;1532;1533;-0.000499847;1 mA
1537.5;-0.821228;1534;1535;-0.000499847;1 mA
1539.5;-0.821228;1536;1537;-0.000499878;1 mA
1541.5;-0.821228;1538;1539;-0.000499908;1 mA
1543.5;-0.821228;1540;1541;-0.000499847;1 mA
1545.5;-0.821228;1542;1543;-0.000499847;1 mA
1547.5;-0.821228;1544;1545;-0.000499847;1 mA
1549.5;-0.821228;1546;1547;-0.000499817;1 mA
1551.5;-0.821228;1548;1549;-0.000499939;1 mA
1553.5;-0.821228;1550;1551;-0.000499847;1 mA
1555.5;-0.821533;1552;1553;-0.000499878;1 mA
1557.5;-0.821533;1554;1555;-0.000499847;1 mA
1559.5;-0.821533;1556;1557;-0.000499786;1 mA
1561.5;-0.821533;1558;1559;-0.000499878;1 mA
1563.5;-0.821533;1560;1561;-0.000499817;1 mA
1565.5;-0.821533;1562;1563;-0.000499908;1 mA
1567.5;-0.821533;1564;1565;-0.000499908;1 mA
1569.5;-0.821533;1566;1567;-0.000499847;1 mA
1571.5;-0.821533;1568;1569;-0.000499908;1 mA
1573.5;-0.821533;1570;1571;-0.000499939;1 mA
1575.5;-0.821533;1572;1573;-0.000499908;1 mA
1577.5;-0.821838;1574;1575;-0.000499908;1 mA
1579.5;-0.821838;1576;1577;-0.000499939;1 mA
1581.5;-0.821838;1578;1579;-0.000499878;1 mA
1583.5;-0.821838;1580;1581;-0.000499847;1 mA
1585.5;-0.821838;1582;1583;-0.000499939;1 mA
1587.5;-0.821838;1584;1585;-0.000499878;1 mA
1589.5;-0.821838;1586;1587;-0.000499878;1 mA
1591.5;-0.821838;1588;1589;-0.000499939;1 mA
1593.5;-0.822144;1590;1591;-0.000499878;1 mA
1595.5;-0.822144;1592;1593;-0.000499878;1 mA
1597.5;-0.822144;1594;1595;-0.000499878;1 mA
1599.5;-0.822144;1596;1597;-0.000499847;1 mA
1601.5;-0.822144;1598;1599;-0.000499908;1 mA
1603.5;-0.822144;1600;1601;-0.000499908;1 mA
1605.5;-0.822144;1602;1603;-0.000499878;1 mA
1607.5;-0.822144;1604;1605;-0.000499817;1 mA
1609.5;-0.822144;1606;1607;-0.000499847;1 mA
1611.5;-0.822449;1608;1609;-0.000499878;1 mA
1613.5;-0.822449;1610;1611;-0.000499908;1 mA
1615.5;-0.822449;1612;1613;-0.000499908;1 mA
1617.5;-0.822449;1614;1615;-0.000499847;1 mA
1619.5;-0.822449;1616;1617;-0.000499908;1 mA
1621.5;-0.822449;1618;1619;-0.000499878;1 mA
1623.5;-0.822449;1620;1621;-0.000499878;1 mA
1625.5;-0.822449;1622;1623;-0.000499847;1 mA
1627.5;-0.822449;1624;1625;-0.000499847;1 mA
1629.5;-0.822449;1626;1627;-0.000499847;1 mA
1631.5;-0.822449;1628;1629;-0.000499908;1 mA
1633.5;-0.822754;1630;1631;-0.000499939;1 mA
1635.5;-0.822754;1632;1633;-0.000499878;1 mA
1637.5;-0.822754;1634;1635;-0.000499847;1 mA
1639.5;-0.822754;1636;1637;-0.000499847;1 mA
1641.5;-0.822754;1638;1639;-0.000499878;1 mA
1643.5;-0.822754;1640;1641;-0.000499847;1 mA
1645.5;-0.822754;1642;1643;-0.000499908;1 mA
1647.5;-0.822754;1644;1645;-0.000499908;1 mA
1649.5;-0.822754;1646;1647;-0.000499908;1 mA
1651.5;-0.823059;1648;1649;-0.000499908;1 mA
1653.5;-0.823059;1650;1651;-0.000499817;1 mA
1655.5;-0.823059;1652;1653;-0.000499847;1 mA
1657.5;-0.823059;1654;1655;-0.000499939;1 mA
1659.5;-0.823059;1656;1657;-0.000499786;1 mA
1661.5;-0.823059;1658;1659;-0.000499878;1 mA
1663.5;-0.823059;1660;1661;-0.000499908;1 mA
1665.5;-0.823059;1662;1663;-0.000499847;1 mA
1667.5;-0.823059;1664;1665;-0.000499878;1 mA
1669.5;-0.823059;1666;1667;-0.000499908;1 mA
1671.5;-0.823364;1668;1669;-0.000499878;1 mA
1673.5;-0.823364;1670;1671;-0.000499817;1 mA
1675.5;-0.823364;1672;1673;-0.000499878;1 mA
1677.5;-0.823364;1674;1675;-0.000499847;1 mA
1679.5;-0.823364;1676;1677;-0.000499817;1 mA
1681.5;-0.823364;1678;1679;-0.000499817;1 mA
1683.5;-0.823364;1680;1681;-0.000499878;1 mA
1685.5;-0.823364;1682;1683;-0.000499817;1 mA
1687.5;-0.823364;1684;1685;-0.000499847;1 mA
1689.5;-0.823669;1686;1687;-0.000499939;1 mA
1691.5;-0.823669;1688;1689;-0.000499817;1 mA
1693.5;-0.823669;1690;1691;-0.000499878;1 mA
1695.5;-0.823669;1692;1693;-0.000499817;1 mA
1697.5;-0.823669;1694;1695;-0.000499847;1 mA
1699.5;-0.823669;1696;1697;-0.000499847;1 mA
1701.5;-0.823669;1698;1699;-0.000499878;1 mA
1703.5;-0.823669;1700;1701;-0.000499878;1 mA
1705.5;-0.823669;1702;1703;-0.000499817;1 mA
1707.5;-0.823975;1704;1705;-0.000499847;1 mA
1709.5;-0.823975;1706;1707;-0.000499878;1 mA
1711.5;-0.823975;1708;1709;-0.000499939;1 mA
1713.5;-0.823975;1710;1711;-0.000499847;1 mA
1715.5;-0.823975;1712;1713;-0.000499817;1 mA
1717.5;-0.823975;1714;1715;-0.000499817;1 mA
1719.5;-0.823975;1716;1717;-0.000499878;1 mA
1721.5;-0.823975;1718;1719;-0.000499908;1 mA
1723.5;-0.823975;1720;1721;-0.000499847;1 mA
1725.5;-0.82428;1722;1723;-0.000499786;1 mA
1727.5;-0.82428;1724;1725;-0.000499878;1 mA
1729.5;-0.82428;1726;1727;-0.000499786;1 mA
1731.5;-0.82428;1728;1729;-0.000499878;1 mA
1733.5;-0.82428;1730;1731;-0.000499878;1 mA
1735.5;-0.82428;1732;1733;-0.000499908;1 mA
1737.5;-0.82428;1734;1735;-0.000499878;1 mA
1739.5;-0.82428;1736;1737;-0.000499878;1 mA
1741.5;-0.82428;1738;1739;-0.000499908;1 mA
1743.5;-0.824585;1740;1741;-0.000499847;1 mA
1745.5;-0.824585;1742;1743;-0.000499847;1 mA
1747.5;-0.824585;1744;1745;-0.000499756;1 mA
1749.5;-0.824585;1746;1747;-0.000499908;1 mA
1751.5;-0.824585;1748;1749;-0.000499817;1 mA
1753.5;-0.824585;1750;1751;-0.000499878;1 mA
1755.5;-0.824585;1752;1753;-0.000499847;1 mA
1757.5;-0.824585;1754;1755;-0.000499878;1 mA
1759.5;-0.824585;1756;1757;-0.000499878;1 mA
1761.5;-0.824585;1758;1759;-0.000499817;1 mA
1763.5;-0.82489;1760;1761;-0.000499847;1 mA
1765.5;-0.82489;1762;1763;-0.000499817;1 mA
1767.5;-0.82489;1764;1765;-0.000499878;1 mA
1769.5;-0.82489;1766;1767;-0.000499847;1 mA
1771.5;-0.82489;1768;1769;-0.000499908;1 mA
1773.5;-0.82489;1770;1771;-0.000499878;1 mA
1775.5;-0.82489;1772;1773;-0.000499847;1 mA
1777.5;-0.82489;1774;1775;-0.000499847;1 mA
1779.5;-0.82489;1776;1777;-0.000499908;1 mA
1781.5;-0.825195;1778;1779;-0.000499847;1 mA
1783.5;-0.825195;1780;1781;-0.000499847;1 mA
1785.5;-0.825195;1782;1783;-0.000499786;1 mA
1787.5;-0.825195;1784;1785;-0.000499786;1 mA
1789.5;-0.825195;1786;1787;-0.000499817;1 mA
1791.5;-0.825195;1788;1789;-0.000499847;1 mA
1793.5;-0.825195;1790;1791;-0.000499878;1 mA
1795.5;-0.825195;1792;1793;-0.000499908;1 mA
1797.5;-0.825195;1794;1795;-0.000499847;1 mA
1799.5;-0.8255;1796;1797;-0.000499878;1 mA
1801.5;-0.8255;1798;1799;-0.000499847;1 mA
1802.5;-0.8255;1799;1800;-0.000499908;1 mA