File: Example_Raw_Data_Files/Electrodeposition/Co16-FTO_CP_-500µA_30min.txt
Time (s);WE(1).Potential (V);Corrected time (s);Index;WE(1).Current (A);Current range
1.29733;-0.935059;0;1;-0.000499725;1 mA
3.29733;-0.918884;2;3;-0.000499817;1 mA
5.29733;-0.911255;4;5;-0.000499817;1 mA
7.29733;-0.905762;6;7;-0.000499817;1 mA
9.29733;-0.901794;8;9;-0.000499817;1 mA
11.2973;-0.898743;10;11;-0.000499817;1 mA
13.2973;-0.895996;12;13;-0.000499817;1 mA
15.2973;-0.893555;14;15;-0.000499878;1 mA
17.2973;-0.891418;16;17;-0.000499878;1 mA
19.2973;-0.889282;18;19;-0.000499756;1 mA
21.2973;-0.887451;20;21;-0.000499786;1 mA
23.2973;-0.885315;22;23;-0.000499878;1 mA
25.2973;-0.883484;24;25;-0.000499878;1 mA
27.2973;-0.881958;26;27;-0.000499786;1 mA
29.2973;-0.880127;28;29;-0.000499847;1 mA
31.2973;-0.878601;30;31;-0.000499786;1 mA
33.2973;-0.877075;32;33;-0.000499878;1 mA
35.2973;-0.875549;34;35;-0.000499847;1 mA
37.2973;-0.874023;36;37;-0.000499786;1 mA
39.2973;-0.872498;38;39;-0.000499817;1 mA
41.2973;-0.871277;40;41;-0.000499847;1 mA
43.2973;-0.869751;42;43;-0.000499786;1 mA
45.2973;-0.86853;44;45;-0.000499847;1 mA
47.2973;-0.86731;46;47;-0.000499847;1 mA
49.2973;-0.866394;48;49;-0.000499847;1 mA
51.2973;-0.865173;50;51;-0.000499817;1 mA
53.2973;-0.863953;52;53;-0.000499786;1 mA
55.2973;-0.863037;54;55;-0.000499847;1 mA
57.2973;-0.862122;56;57;-0.000499817;1 mA
59.2973;-0.860901;58;59;-0.000499847;1 mA
61.2973;-0.859985;60;61;-0.000499847;1 mA
63.2973;-0.85907;62;63;-0.000499817;1 mA
65.2973;-0.858154;64;65;-0.000499908;1 mA
67.2973;-0.857544;66;67;-0.000499878;1 mA
69.2973;-0.856628;68;69;-0.000499878;1 mA
71.2973;-0.855713;70;71;-0.000499878;1 mA
73.2973;-0.855103;72;73;-0.000499878;1 mA
75.2973;-0.854187;74;75;-0.000499817;1 mA
77.2973;-0.853577;76;77;-0.000499908;1 mA
79.2973;-0.852661;78;79;-0.000499786;1 mA
81.2973;-0.852051;80;81;-0.000499878;1 mA
83.2973;-0.85144;82;83;-0.000499847;1 mA
85.2973;-0.85083;84;85;-0.000499847;1 mA
87.2973;-0.85022;86;87;-0.000499847;1 mA
89.2973;-0.849609;88;89;-0.000499786;1 mA
91.2973;-0.848999;90;91;-0.000499817;1 mA
93.2973;-0.848389;92;93;-0.000499908;1 mA
95.2973;-0.847778;94;95;-0.000499817;1 mA
97.2973;-0.847168;96;97;-0.000499817;1 mA
99.2973;-0.846558;98;99;-0.000499817;1 mA
101.297;-0.846252;100;101;-0.000499878;1 mA
103.297;-0.845642;102;103;-0.000499878;1 mA
105.297;-0.845032;104;105;-0.000499878;1 mA
107.297;-0.844727;106;107;-0.000499908;1 mA
109.297;-0.844116;108;109;-0.000499878;1 mA
111.297;-0.843811;110;111;-0.000499817;1 mA
113.297;-0.843201;112;113;-0.000499817;1 mA
115.297;-0.842896;114;115;-0.000499908;1 mA
117.297;-0.842285;116;117;-0.000499878;1 mA
119.297;-0.84198;118;119;-0.000499847;1 mA
121.297;-0.841675;120;121;-0.000499847;1 mA
123.297;-0.841064;122;123;-0.000499817;1 mA
125.297;-0.840759;124;125;-0.000499847;1 mA
127.297;-0.840454;126;127;-0.000499847;1 mA
129.297;-0.839844;128;129;-0.000499878;1 mA
131.297;-0.839539;130;131;-0.000499847;1 mA
133.297;-0.839233;132;133;-0.000499847;1 mA
135.297;-0.838928;134;135;-0.000499847;1 mA
137.297;-0.838623;136;137;-0.000499939;1 mA
139.297;-0.838318;138;139;-0.000499847;1 mA
141.297;-0.838013;140;141;-0.000499817;1 mA
143.297;-0.837708;142;143;-0.000499847;1 mA
145.297;-0.837402;144;145;-0.000499847;1 mA
147.297;-0.837097;146;147;-0.000499817;1 mA
149.297;-0.836792;148;149;-0.000499878;1 mA
151.297;-0.836487;150;151;-0.000499878;1 mA
153.297;-0.836182;152;153;-0.000499847;1 mA
155.297;-0.835876;154;155;-0.000499908;1 mA
157.297;-0.835571;156;157;-0.000499847;1 mA
159.297;-0.835266;158;159;-0.000499908;1 mA
161.297;-0.834961;160;161;-0.000499786;1 mA
163.297;-0.834656;162;163;-0.000499908;1 mA
165.297;-0.834351;164;165;-0.000499908;1 mA
167.297;-0.834351;166;167;-0.000499847;1 mA
169.297;-0.834045;168;169;-0.000499878;1 mA
171.297;-0.83374;170;171;-0.000499908;1 mA
173.297;-0.833435;172;173;-0.000499878;1 mA
175.297;-0.833435;174;175;-0.000499847;1 mA
177.297;-0.83313;176;177;-0.000499847;1 mA
179.297;-0.832825;178;179;-0.000499878;1 mA
181.297;-0.832825;180;181;-0.000499847;1 mA
183.297;-0.83252;182;183;-0.000499908;1 mA
185.297;-0.832214;184;185;-0.000499878;1 mA
187.297;-0.832214;186;187;-0.000499817;1 mA
189.297;-0.831909;188;189;-0.000499847;1 mA
191.297;-0.831604;190;191;-0.000499939;1 mA
193.297;-0.831604;192;193;-0.000499817;1 mA
195.297;-0.831299;194;195;-0.000499847;1 mA
197.297;-0.831299;196;197;-0.000499847;1 mA
199.297;-0.830994;198;199;-0.000499908;1 mA
201.297;-0.830994;200;201;-0.000499908;1 mA
203.297;-0.830688;202;203;-0.000499878;1 mA
205.297;-0.830383;204;205;-0.000499878;1 mA
207.297;-0.830383;206;207;-0.000499878;1 mA
209.297;-0.830383;208;209;-0.000499878;1 mA
211.297;-0.830078;210;211;-0.000499878;1 mA
213.297;-0.830078;212;213;-0.000499847;1 mA
215.297;-0.829773;214;215;-0.000499908;1 mA
217.297;-0.829773;216;217;-0.000499908;1 mA
219.297;-0.829468;218;219;-0.000499878;1 mA
221.297;-0.829468;220;221;-0.000499847;1 mA
223.297;-0.829163;222;223;-0.000499908;1 mA
225.297;-0.829163;224;225;-0.000499878;1 mA
227.297;-0.829163;226;227;-0.000499847;1 mA
229.297;-0.828857;228;229;-0.000499878;1 mA
231.297;-0.828857;230;231;-0.000499847;1 mA
233.297;-0.828552;232;233;-0.000499847;1 mA
235.297;-0.828552;234;235;-0.000499908;1 mA
237.297;-0.828552;236;237;-0.000499878;1 mA
239.297;-0.828247;238;239;-0.000499847;1 mA
241.297;-0.828247;240;241;-0.000499786;1 mA
243.297;-0.828247;242;243;-0.000499847;1 mA
245.297;-0.827942;244;245;-0.000499878;1 mA
247.297;-0.827942;246;247;-0.000499939;1 mA
249.297;-0.827942;248;249;-0.000499817;1 mA
251.297;-0.827942;250;251;-0.000499908;1 mA
253.297;-0.827637;252;253;-0.000499817;1 mA
255.297;-0.827637;254;255;-0.000499878;1 mA
257.297;-0.827637;256;257;-0.000499908;1 mA
259.297;-0.827332;258;259;-0.000499817;1 mA
261.297;-0.827332;260;261;-0.000499878;1 mA
263.297;-0.827332;262;263;-0.000499847;1 mA
265.297;-0.827332;264;265;-0.000499939;1 mA
267.297;-0.827332;266;267;-0.000499939;1 mA
269.297;-0.827026;268;269;-0.000499908;1 mA
271.297;-0.827026;270;271;-0.000499817;1 mA
273.297;-0.827026;272;273;-0.000499847;1 mA
275.297;-0.827026;274;275;-0.000499908;1 mA
277.297;-0.827026;276;277;-0.000499847;1 mA
279.297;-0.826721;278;279;-0.000499878;1 mA
281.297;-0.826721;280;281;-0.000499847;1 mA
283.297;-0.826721;282;283;-0.000499847;1 mA
285.297;-0.826721;284;285;-0.000499908;1 mA
287.297;-0.826721;286;287;-0.000499908;1 mA
289.297;-0.826721;288;289;-0.000499847;1 mA
291.297;-0.826721;290;291;-0.000499847;1 mA
293.297;-0.826416;292;293;-0.000499878;1 mA
295.297;-0.826416;294;295;-0.000499786;1 mA
297.297;-0.826416;296;297;-0.000499908;1 mA
299.297;-0.826416;298;299;-0.000499939;1 mA
301.297;-0.826416;300;301;-0.000499878;1 mA
303.297;-0.826416;302;303;-0.000499847;1 mA
305.297;-0.826416;304;305;-0.000499847;1 mA
307.297;-0.826416;306;307;-0.000499969;1 mA
309.297;-0.826416;308;309;-0.000499908;1 mA
311.297;-0.826111;310;311;-0.000499878;1 mA
313.297;-0.826111;312;313;-0.000499817;1 mA
315.297;-0.826111;314;315;-0.000499908;1 mA
317.297;-0.826111;316;317;-0.000499878;1 mA
319.297;-0.826111;318;319;-0.000499847;1 mA
321.297;-0.826111;320;321;-0.000499878;1 mA
323.297;-0.826111;322;323;-0.000499878;1 mA
325.297;-0.826111;324;325;-0.000499969;1 mA
327.297;-0.826111;326;327;-0.000499878;1 mA
329.297;-0.826111;328;329;-0.000499908;1 mA
331.297;-0.826111;330;331;-0.000499847;1 mA
333.297;-0.826111;332;333;-0.000499878;1 mA
335.297;-0.826111;334;335;-0.000499817;1 mA
337.297;-0.826111;336;337;-0.000499969;1 mA
339.297;-0.826111;338;339;-0.000499878;1 mA
341.297;-0.826111;340;341;-0.000499878;1 mA
343.297;-0.826111;342;343;-0.000499908;1 mA
345.297;-0.826111;344;345;-0.000499878;1 mA
347.297;-0.826111;346;347;-0.000499908;1 mA
349.297;-0.826111;348;349;-0.000499878;1 mA
351.297;-0.826111;350;351;-0.000499908;1 mA
353.297;-0.826111;352;353;-0.000499878;1 mA
355.297;-0.826111;354;355;-0.000499847;1 mA
357.297;-0.826111;356;357;-0.000499847;1 mA
359.297;-0.826111;358;359;-0.000499969;1 mA
361.297;-0.826111;360;361;-0.000499878;1 mA
363.297;-0.826111;362;363;-0.000499878;1 mA
365.297;-0.826111;364;365;-0.000499847;1 mA
367.297;-0.826111;366;367;-0.000499908;1 mA
369.297;-0.826416;368;369;-0.000499847;1 mA
371.297;-0.826416;370;371;-0.000499908;1 mA
373.297;-0.826416;372;373;-0.000499878;1 mA
375.297;-0.826416;374;375;-0.000499847;1 mA
377.297;-0.826416;376;377;-0.000499908;1 mA
379.297;-0.826416;378;379;-0.000499908;1 mA
381.297;-0.826416;380;381;-0.000499847;1 mA
383.297;-0.826416;382;383;-0.000499847;1 mA
385.297;-0.826416;384;385;-0.000499939;1 mA
387.297;-0.826416;386;387;-0.000499878;1 mA
389.297;-0.826416;388;389;-0.000499878;1 mA
391.297;-0.826721;390;391;-0.000499908;1 mA
393.297;-0.826721;392;393;-0.000499878;1 mA
395.297;-0.826721;394;395;-0.000499817;1 mA
397.297;-0.826721;396;397;-0.000499847;1 mA
399.297;-0.826721;398;399;-0.000499939;1 mA
401.297;-0.826721;400;401;-0.000499939;1 mA
403.297;-0.826721;402;403;-0.000499847;1 mA
405.297;-0.826721;404;405;-0.000499908;1 mA
407.297;-0.827026;406;407;-0.000499908;1 mA
409.297;-0.827026;408;409;-0.000499817;1 mA
411.297;-0.827026;410;411;-0.000499908;1 mA
413.297;-0.827026;412;413;-0.000499908;1 mA
415.297;-0.827026;414;415;-0.000499969;1 mA
417.297;-0.827026;416;417;-0.000499939;1 mA
419.297;-0.827332;418;419;-0.000499939;1 mA
421.297;-0.827332;420;421;-0.000499878;1 mA
423.297;-0.827332;422;423;-0.000499878;1 mA
425.297;-0.827332;424;425;-0.000499908;1 mA
427.297;-0.827332;426;427;-0.000499908;1 mA
429.297;-0.827332;428;429;-0.000499847;1 mA
431.297;-0.827637;430;431;-0.000499908;1 mA
433.297;-0.827637;432;433;-0.000499908;1 mA
435.297;-0.827637;434;435;-0.000499878;1 mA
437.297;-0.827637;436;437;-0.000499939;1 mA
439.297;-0.827637;438;439;-0.000499878;1 mA
441.297;-0.827942;440;441;-0.000499847;1 mA
443.297;-0.827942;442;443;-0.000499969;1 mA
445.297;-0.827942;444;445;-0.000499847;1 mA
447.297;-0.827942;446;447;-0.000499878;1 mA
449.297;-0.827942;448;449;-0.000499908;1 mA
451.297;-0.828247;450;451;-0.000499878;1 mA
453.297;-0.828247;452;453;-0.000499908;1 mA
455.297;-0.828247;454;455;-0.000499939;1 mA
457.297;-0.828247;456;457;-0.000499908;1 mA
459.297;-0.828247;458;459;-0.000499969;1 mA
461.297;-0.828552;460;461;-0.000499939;1 mA
463.297;-0.828552;462;463;-0.000499847;1 mA
465.297;-0.828552;464;465;-0.000499817;1 mA
467.297;-0.828552;466;467;-0.000499908;1 mA
469.297;-0.828857;468;469;-0.000499969;1 mA
471.297;-0.828857;470;471;-0.000499847;1 mA
473.297;-0.828857;472;473;-0.000499908;1 mA
475.297;-0.828857;474;475;-0.000499878;1 mA
477.297;-0.829163;476;477;-0.000499878;1 mA
479.297;-0.829163;478;479;-0.000499908;1 mA
481.297;-0.829163;480;481;-0.000499939;1 mA
483.297;-0.829163;482;483;-0.000499969;1 mA
485.297;-0.829468;484;485;-0.000499878;1 mA
487.297;-0.829468;486;487;-0.000499878;1 mA
489.297;-0.829468;488;489;-0.000499908;1 mA
491.297;-0.829468;490;491;-0.000499878;1 mA
493.297;-0.829773;492;493;-0.000499939;1 mA
495.297;-0.829773;494;495;-0.000499878;1 mA
497.297;-0.829773;496;497;-0.000499817;1 mA
499.297;-0.830078;498;499;-0.000499878;1 mA
501.297;-0.830078;500;501;-0.000499939;1 mA
503.297;-0.830078;502;503;-0.000499847;1 mA
505.297;-0.830078;504;505;-0.000499878;1 mA
507.297;-0.830383;506;507;-0.000499908;1 mA
509.297;-0.830383;508;509;-0.000499878;1 mA
511.297;-0.830383;510;511;-0.000499817;1 mA
513.297;-0.830688;512;513;-0.000499847;1 mA
515.297;-0.830688;514;515;-0.000499908;1 mA
517.297;-0.830688;516;517;-0.000499878;1 mA
519.297;-0.830688;518;519;-0.000499908;1 mA
521.297;-0.830994;520;521;-0.000499878;1 mA
523.297;-0.830994;522;523;-0.000499908;1 mA
525.297;-0.830994;524;525;-0.000499847;1 mA
527.297;-0.831299;526;527;-0.000499908;1 mA
529.297;-0.831299;528;529;-0.000499847;1 mA
531.297;-0.831299;530;531;-0.000499817;1 mA
533.297;-0.831604;532;533;-0.000499847;1 mA
535.297;-0.831604;534;535;-0.000499908;1 mA
537.297;-0.831604;536;537;-0.000499878;1 mA
539.297;-0.831909;538;539;-0.000499908;1 mA
541.297;-0.831909;540;541;-0.000499908;1 mA
543.297;-0.831909;542;543;-0.000499939;1 mA
545.297;-0.832214;544;545;-0.000499908;1 mA
547.297;-0.832214;546;547;-0.000499939;1 mA
549.297;-0.83252;548;549;-0.000499908;1 mA
551.297;-0.83252;550;551;-0.000499817;1 mA
553.297;-0.83252;552;553;-0.000499847;1 mA
555.297;-0.832825;554;555;-0.000499939;1 mA
557.297;-0.832825;556;557;-0.000499878;1 mA
559.297;-0.832825;558;559;-0.000499878;1 mA
561.297;-0.83313;560;561;-0.000499878;1 mA
563.297;-0.83313;562;563;-0.000499908;1 mA
565.297;-0.83313;564;565;-0.000499969;1 mA
567.297;-0.833435;566;567;-0.000499847;1 mA
569.297;-0.833435;568;569;-0.000499939;1 mA
571.297;-0.83374;570;571;-0.000499908;1 mA
573.297;-0.83374;572;573;-0.000499908;1 mA
575.297;-0.83374;574;575;-0.000499878;1 mA
577.297;-0.834045;576;577;-0.000499969;1 mA
579.297;-0.834045;578;579;-0.000499908;1 mA
581.297;-0.834351;580;581;-0.000499847;1 mA
583.297;-0.834351;582;583;-0.000499939;1 mA
585.297;-0.834351;584;585;-0.000499847;1 mA
587.297;-0.834656;586;587;-0.000499878;1 mA
589.297;-0.834656;588;589;-0.000499908;1 mA
591.297;-0.834656;590;591;-0.000499908;1 mA
593.297;-0.834961;592;593;-0.000499939;1 mA
595.297;-0.834961;594;595;-0.000499969;1 mA
597.297;-0.835266;596;597;-0.000499878;1 mA
599.297;-0.835266;598;599;-0.000499908;1 mA
601.297;-0.835571;600;601;-0.000499908;1 mA
603.297;-0.835571;602;603;-0.000499908;1 mA
605.297;-0.835571;604;605;-0.000499939;1 mA
607.297;-0.835876;606;607;-0.000499878;1 mA
609.297;-0.835876;608;609;-0.000499878;1 mA
611.297;-0.836182;610;611;-0.000499939;1 mA
613.297;-0.836182;612;613;-0.000499847;1 mA
615.297;-0.836487;614;615;-0.000499878;1 mA
617.297;-0.836487;616;617;-0.000499878;1 mA
619.297;-0.836487;618;619;-0.000499939;1 mA
621.297;-0.836792;620;621;-0.000499908;1 mA
623.297;-0.836792;622;623;-0.000499939;1 mA
625.297;-0.837097;624;625;-0.000499817;1 mA
627.297;-0.837097;626;627;-0.000499969;1 mA
629.297;-0.837402;628;629;-0.000499969;1 mA
631.297;-0.837402;630;631;-0.000499908;1 mA
633.297;-0.837708;632;633;-0.000499847;1 mA
635.297;-0.837708;634;635;-0.000499878;1 mA
637.297;-0.838013;636;637;-0.000499847;1 mA
639.297;-0.838013;638;639;-0.000499908;1 mA
641.297;-0.838318;640;641;-0.000499847;1 mA
643.297;-0.838318;642;643;-0.000499939;1 mA
645.297;-0.838318;644;645;-0.000499908;1 mA
647.297;-0.838623;646;647;-0.000499939;1 mA
649.297;-0.838928;648;649;-0.000499878;1 mA
651.297;-0.838928;650;651;-0.000499878;1 mA
653.297;-0.838928;652;653;-0.000499939;1 mA
655.297;-0.839233;654;655;-0.000499847;1 mA
657.297;-0.839233;656;657;-0.000499786;1 mA
659.297;-0.839539;658;659;-0.000499878;1 mA
661.297;-0.839539;660;661;-0.000499878;1 mA
663.297;-0.839844;662;663;-0.000499908;1 mA
665.297;-0.839844;664;665;-0.000499847;1 mA
667.297;-0.840149;666;667;-0.000499908;1 mA
669.297;-0.840454;668;669;-0.000499908;1 mA
671.297;-0.840454;670;671;-0.000499908;1 mA
673.297;-0.840759;672;673;-0.000499908;1 mA
675.297;-0.840759;674;675;-0.000499908;1 mA
677.297;-0.841064;676;677;-0.000499878;1 mA
679.297;-0.841064;678;679;-0.000499939;1 mA
681.297;-0.84137;680;681;-0.000499847;1 mA
683.297;-0.84137;682;683;-0.000499878;1 mA
685.297;-0.841675;684;685;-0.000499939;1 mA
687.297;-0.841675;686;687;-0.000499908;1 mA
689.297;-0.84198;688;689;-0.000499908;1 mA
691.297;-0.842285;690;691;-0.000499878;1 mA
693.297;-0.842285;692;693;-0.000499939;1 mA
695.297;-0.84259;694;695;-0.000499908;1 mA
697.297;-0.84259;696;697;-0.000499969;1 mA
699.297;-0.842896;698;699;-0.000499939;1 mA
701.297;-0.842896;700;701;-0.000499908;1 mA
703.297;-0.843201;702;703;-0.000499939;1 mA
705.297;-0.843506;704;705;-0.000499939;1 mA
707.297;-0.843506;706;707;-0.000499878;1 mA
709.297;-0.843811;708;709;-0.000499908;1 mA
711.297;-0.844116;710;711;-0.000499939;1 mA
713.297;-0.844116;712;713;-0.000499908;1 mA
715.297;-0.844421;714;715;-0.000499939;1 mA
717.297;-0.844421;716;717;-0.000499939;1 mA
719.297;-0.844727;718;719;-0.000499908;1 mA
721.297;-0.845032;720;721;-0.000499847;1 mA
723.297;-0.845032;722;723;-0.000499908;1 mA
725.297;-0.845337;724;725;-0.000499939;1 mA
727.297;-0.845642;726;727;-0.000499939;1 mA
729.297;-0.845642;728;729;-0.000499847;1 mA
731.297;-0.845947;730;731;-0.000499847;1 mA
733.297;-0.846252;732;733;-0.000499847;1 mA
735.297;-0.846252;734;735;-0.000499939;1 mA
737.297;-0.846558;736;737;-0.000499847;1 mA
739.297;-0.846863;738;739;-0.000499908;1 mA
741.297;-0.846863;740;741;-0.000499878;1 mA
743.297;-0.847168;742;743;-0.000499908;1 mA
745.297;-0.847473;744;745;-0.000499939;1 mA
747.297;-0.847778;746;747;-0.000499939;1 mA
749.297;-0.847778;748;749;-0.000499878;1 mA
751.297;-0.848083;750;751;-0.000499908;1 mA
753.297;-0.848389;752;753;-0.000499939;1 mA
755.297;-0.848389;754;755;-0.000499878;1 mA
757.297;-0.848694;756;757;-0.000499908;1 mA
759.297;-0.848999;758;759;-0.000499878;1 mA
761.297;-0.849304;760;761;-0.000499939;1 mA
763.297;-0.849609;762;763;-0.000499969;1 mA
765.297;-0.849609;764;765;-0.000499878;1 mA
767.297;-0.849915;766;767;-0.000499908;1 mA
769.297;-0.85022;768;769;-0.000499847;1 mA
771.297;-0.850525;770;771;-0.000499847;1 mA
773.297;-0.85083;772;773;-0.000499908;1 mA
775.297;-0.85083;774;775;-0.000499908;1 mA
777.297;-0.851135;776;777;-0.000499878;1 mA
779.297;-0.85144;778;779;-0.000499878;1 mA
781.297;-0.851746;780;781;-0.000499908;1 mA
783.297;-0.852051;782;783;-0.000499878;1 mA
785.297;-0.852356;784;785;-0.000499939;1 mA
787.297;-0.852661;786;787;-0.000499878;1 mA
789.297;-0.852661;788;789;-0.000499908;1 mA
791.297;-0.852966;790;791;-0.000499878;1 mA
793.297;-0.853271;792;793;-0.000499908;1 mA
795.297;-0.853577;794;795;-0.000499908;1 mA
797.297;-0.853882;796;797;-0.000499847;1 mA
799.297;-0.854187;798;799;-0.000499847;1 mA
801.297;-0.854492;800;801;-0.000499878;1 mA
803.297;-0.854797;802;803;-0.000499878;1 mA
805.297;-0.855103;804;805;-0.000499939;1 mA
807.297;-0.855408;806;807;-0.000499908;1 mA
809.297;-0.855713;808;809;-0.000499939;1 mA
811.297;-0.856018;810;811;-0.000499939;1 mA
813.297;-0.856323;812;813;-0.000499908;1 mA
815.297;-0.856628;814;815;-0.000499878;1 mA
817.297;-0.857239;816;817;-0.000499939;1 mA
819.297;-0.857544;818;819;-0.000499908;1 mA
821.297;-0.857849;820;821;-0.000499878;1 mA
823.297;-0.858154;822;823;-0.000499878;1 mA
825.297;-0.858459;824;825;-0.000499908;1 mA
827.297;-0.858765;826;827;-0.000499908;1 mA
829.297;-0.85907;828;829;-0.000499908;1 mA
831.297;-0.85968;830;831;-0.000499969;1 mA
833.297;-0.859985;832;833;-0.000499908;1 mA
835.297;-0.860291;834;835;-0.000499878;1 mA
837.297;-0.860596;836;837;-0.000499878;1 mA
839.297;-0.861206;838;839;-0.000499878;1 mA
841.297;-0.861511;840;841;-0.000499847;1 mA
843.297;-0.862122;842;843;-0.000499878;1 mA
845.297;-0.862427;844;845;-0.000499908;1 mA
847.297;-0.862732;846;847;-0.000499878;1 mA
849.297;-0.863342;848;849;-0.000499878;1 mA
851.297;-0.863647;850;851;-0.000499878;1 mA
853.297;-0.864258;852;853;-0.000499908;1 mA
855.297;-0.864563;854;855;-0.000499908;1 mA
857.297;-0.865173;856;857;-0.000499847;1 mA
859.297;-0.865784;858;859;-0.000499969;1 mA
861.297;-0.866089;860;861;-0.000499939;1 mA
863.297;-0.866699;862;863;-0.000499908;1 mA
865.297;-0.86731;864;865;-0.000499878;1 mA
867.297;-0.867615;866;867;-0.000499847;1 mA
869.297;-0.868225;868;869;-0.000499847;1 mA
871.297;-0.868835;870;871;-0.000499939;1 mA
873.297;-0.869446;872;873;-0.000499939;1 mA
875.297;-0.870056;874;875;-0.000499878;1 mA
877.297;-0.870667;876;877;-0.000499847;1 mA
879.297;-0.871277;878;879;-0.000499817;1 mA
881.297;-0.871887;880;881;-0.000499847;1 mA
883.297;-0.872498;882;883;-0.000499878;1 mA
885.297;-0.873413;884;885;-0.000499878;1 mA
887.297;-0.874023;886;887;-0.000499908;1 mA
889.297;-0.874634;888;889;-0.000499908;1 mA
891.297;-0.875244;890;891;-0.000499939;1 mA
893.297;-0.87616;892;893;-0.000499847;1 mA
895.297;-0.87677;894;895;-0.000499908;1 mA
897.297;-0.877686;896;897;-0.000499878;1 mA
899.297;-0.878601;898;899;-0.000499939;1 mA
901.297;-0.879211;900;901;-0.000499878;1 mA
903.297;-0.880127;902;903;-0.000499878;1 mA
905.297;-0.881042;904;905;-0.000499969;1 mA
907.297;-0.881958;906;907;-0.000499939;1 mA
909.297;-0.882874;908;909;-0.000499908;1 mA
911.297;-0.883789;910;911;-0.000499878;1 mA
913.297;-0.884705;912;913;-0.000499908;1 mA
915.297;-0.88562;914;915;-0.000499969;1 mA
917.297;-0.886536;916;917;-0.000499969;1 mA
919.297;-0.887756;918;919;-0.000499939;1 mA
921.297;-0.888672;920;921;-0.000499908;1 mA
923.297;-0.889587;922;923;-0.000499878;1 mA
925.297;-0.890808;924;925;-0.000499908;1 mA
927.297;-0.891724;926;927;-0.000499939;1 mA
929.297;-0.892639;928;929;-0.000499847;1 mA
931.297;-0.89386;930;931;-0.000499878;1 mA
933.297;-0.894775;932;933;-0.000499939;1 mA
935.297;-0.895691;934;935;-0.000499878;1 mA
937.297;-0.896606;936;937;-0.000499939;1 mA
939.297;-0.897522;938;939;-0.000499847;1 mA
941.297;-0.8984375;940;941;-0.000499939;1 mA
943.297;-0.899353;942;943;-0.000499939;1 mA
945.297;-0.900269;944;945;-0.000499878;1 mA
947.297;-0.901184;946;947;-0.000499939;1 mA
949.297;-0.901794;948;949;-0.000499878;1 mA
951.297;-0.90271;950;951;-0.000499908;1 mA
953.297;-0.90332;952;953;-0.000499878;1 mA
955.297;-0.904236;954;955;-0.000499939;1 mA
957.297;-0.904846;956;957;-0.000499847;1 mA
959.297;-0.905457;958;959;-0.000499908;1 mA
961.297;-0.906067;960;961;-0.000499908;1 mA
963.297;-0.906677;962;963;-0.000499908;1 mA
965.297;-0.907288;964;965;-0.000499878;1 mA
967.297;-0.907898;966;967;-0.000499908;1 mA
969.297;-0.908508;968;969;-0.000499878;1 mA
971.297;-0.909119;970;971;-0.000499939;1 mA
973.297;-0.909729;972;973;-0.000499939;1 mA
975.297;-0.910339;974;975;-0.000499939;1 mA
977.297;-0.91095;976;977;-0.000499969;1 mA
979.297;-0.911255;978;979;-0.000499969;1 mA
981.297;-0.911865;980;981;-0.000499878;1 mA
983.297;-0.912476;982;983;-0.000499878;1 mA
985.297;-0.912781;984;985;-0.000499908;1 mA
987.297;-0.913391;986;987;-0.000499908;1 mA
989.297;-0.913696;988;989;-0.000499939;1 mA
991.297;-0.914307;990;991;-0.000499969;1 mA
993.297;-0.914612;992;993;-0.000499939;1 mA
995.297;-0.915222;994;995;-0.000499878;1 mA
997.297;-0.915527;996;997;-0.000499908;1 mA
999.297;-0.916138;998;999;-0.000499878;1 mA
1001.3;-0.916443;1000;1001;-0.000499908;1 mA
1003.3;-0.917053;1002;1003;-0.000499939;1 mA
1005.3;-0.917358;1004;1005;-0.000499878;1 mA
1007.3;-0.917969;1006;1007;-0.000499878;1 mA
1009.3;-0.918274;1008;1009;-0.000499817;1 mA
1011.3;-0.918579;1010;1011;-0.000499939;1 mA
1013.3;-0.919189;1012;1013;-0.000499939;1 mA
1015.3;-0.919495;1014;1015;-0.000499969;1 mA
1017.3;-0.9198;1016;1017;-0.000499847;1 mA
1019.3;-0.92041;1018;1019;-0.000499939;1 mA
1021.3;-0.920715;1020;1021;-0.000499908;1 mA
1023.3;-0.921021;1022;1023;-0.000499847;1 mA
1025.3;-0.921631;1024;1025;-0.000499847;1 mA
1027.3;-0.921936;1026;1027;-0.000499969;1 mA
1029.3;-0.922241;1028;1029;-0.000499908;1 mA
1031.3;-0.922546;1030;1031;-0.000499908;1 mA
1033.3;-0.923157;1032;1033;-0.000499969;1 mA
1035.3;-0.923462;1034;1035;-0.000499908;1 mA
1037.3;-0.923767;1036;1037;-0.000499847;1 mA
1039.3;-0.924072;1038;1039;-0.000499878;1 mA
1041.3;-0.924377;1040;1041;-0.000499939;1 mA
1043.3;-0.924988;1042;1043;-0.000499878;1 mA
1045.3;-0.925293;1044;1045;-0.000499908;1 mA
1047.3;-0.925598;1046;1047;-0.000499939;1 mA
1049.3;-0.925903;1048;1049;-0.000499847;1 mA
1051.3;-0.926208;1050;1051;-0.000499878;1 mA
1053.3;-0.926514;1052;1053;-0.000499878;1 mA
1055.3;-0.927124;1054;1055;-0.000499939;1 mA
1057.3;-0.927429;1056;1057;-0.000499908;1 mA
1059.3;-0.927734;1058;1059;-0.000499847;1 mA
1061.3;-0.92804;1060;1061;-0.000499847;1 mA
1063.3;-0.928345;1062;1063;-0.000499908;1 mA
1065.3;-0.92865;1064;1065;-0.000499878;1 mA
1067.3;-0.928955;1066;1067;-0.000499847;1 mA
1069.3;-0.92926;1068;1069;-0.000499939;1 mA
1071.3;-0.929871;1070;1071;-0.000499969;1 mA
1073.3;-0.930176;1072;1073;-0.000499878;1 mA
1075.3;-0.930481;1074;1075;-0.000499939;1 mA
1077.3;-0.930786;1076;1077;-0.000499939;1 mA
1079.3;-0.931091;1078;1079;-0.000499847;1 mA
1081.3;-0.931396;1080;1081;-0.000499847;1 mA
1083.3;-0.931702;1082;1083;-0.000499969;1 mA
1085.3;-0.932007;1084;1085;-0.000499878;1 mA
1087.3;-0.932312;1086;1087;-0.000499908;1 mA
1089.3;-0.932617;1088;1089;-0.000499939;1 mA
1091.3;-0.932922;1090;1091;-0.000499939;1 mA
1093.3;-0.933228;1092;1093;-0.000499908;1 mA
1095.3;-0.933533;1094;1095;-0.000499847;1 mA
1097.3;-0.933838;1096;1097;-0.000499878;1 mA
1099.3;-0.934143;1098;1099;-0.000499878;1 mA
1101.3;-0.934448;1100;1101;-0.000499847;1 mA
1103.3;-0.934753;1102;1103;-0.000499908;1 mA
1105.3;-0.935059;1104;1105;-0.000499878;1 mA
1107.3;-0.935364;1106;1107;-0.000499939;1 mA
1109.3;-0.935669;1108;1109;-0.000499878;1 mA
1111.3;-0.935974;1110;1111;-0.000499847;1 mA
1113.3;-0.936279;1112;1113;-0.000499908;1 mA
1115.3;-0.936584;1114;1115;-0.000499908;1 mA
1117.3;-0.93689;1116;1117;-0.000499847;1 mA
1119.3;-0.937195;1118;1119;-0.000499908;1 mA
1121.3;-0.9375;1120;1121;-0.000499908;1 mA
1123.3;-0.937805;1122;1123;-0.000499847;1 mA
1125.3;-0.93811;1124;1125;-0.000499939;1 mA
1127.3;-0.938416;1126;1127;-0.000499939;1 mA
1129.3;-0.938721;1128;1129;-0.000499939;1 mA
1131.3;-0.939026;1130;1131;-0.000499847;1 mA
1133.3;-0.939331;1132;1133;-0.000499908;1 mA
1135.3;-0.939636;1134;1135;-0.000499939;1 mA
1137.3;-0.939941;1136;1137;-0.000499939;1 mA
1139.3;-0.940247;1138;1139;-0.000499908;1 mA
1141.3;-0.940552;1140;1141;-0.000499969;1 mA
1143.3;-0.940857;1142;1143;-0.000499847;1 mA
1145.3;-0.941162;1144;1145;-0.000499939;1 mA
1147.3;-0.941467;1146;1147;-0.000499878;1 mA
1149.3;-0.941772;1148;1149;-0.000499847;1 mA
1151.3;-0.942078;1150;1151;-0.000499908;1 mA
1153.3;-0.942383;1152;1153;-0.000499939;1 mA
1155.3;-0.942688;1154;1155;-0.000499847;1 mA
1157.3;-0.942688;1156;1157;-0.000499908;1 mA
1159.3;-0.942993;1158;1159;-0.000499878;1 mA
1161.3;-0.943298;1160;1161;-0.000499908;1 mA
1163.3;-0.943604;1162;1163;-0.000499939;1 mA
1165.3;-0.943909;1164;1165;-0.000499908;1 mA
1167.3;-0.944214;1166;1167;-0.000499878;1 mA
1169.3;-0.944519;1168;1169;-0.000499908;1 mA
1171.3;-0.944824;1170;1171;-0.000499847;1 mA
1173.3;-0.945129;1172;1173;-0.000499939;1 mA
1175.3;-0.945435;1174;1175;-0.000499878;1 mA
1177.3;-0.94574;1176;1177;-0.000499878;1 mA
1179.3;-0.946045;1178;1179;-0.000499847;1 mA
1181.3;-0.94635;1180;1181;-0.000499939;1 mA
1183.3;-0.946655;1182;1183;-0.000499939;1 mA
1185.3;-0.94696;1184;1185;-0.000499817;1 mA
1187.3;-0.947266;1186;1187;-0.000499908;1 mA
1189.3;-0.947571;1188;1189;-0.000499939;1 mA
1191.3;-0.947876;1190;1191;-0.000499878;1 mA
1193.3;-0.948181;1192;1193;-0.000499908;1 mA
1195.3;-0.948486;1194;1195;-0.000499939;1 mA
1197.3;-0.948792;1196;1197;-0.000499908;1 mA
1199.3;-0.949097;1198;1199;-0.000499939;1 mA
1201.3;-0.949402;1200;1201;-0.000499908;1 mA
1203.3;-0.949707;1202;1203;-0.000499878;1 mA
1205.3;-0.950012;1204;1205;-0.000499878;1 mA
1207.3;-0.950317;1206;1207;-0.000499939;1 mA
1209.3;-0.950623;1208;1209;-0.000499847;1 mA
1211.3;-0.950928;1210;1211;-0.000499908;1 mA
1213.3;-0.951233;1212;1213;-0.000499878;1 mA
1215.3;-0.951538;1214;1215;-0.000499908;1 mA
1217.3;-0.951843;1216;1217;-0.000499939;1 mA
1219.3;-0.952148;1218;1219;-0.000499878;1 mA
1221.3;-0.952454;1220;1221;-0.000499847;1 mA
1223.3;-0.952759;1222;1223;-0.000499878;1 mA
1225.3;-0.953064;1224;1225;-0.000499847;1 mA
1227.3;-0.953369;1226;1227;-0.000499878;1 mA
1229.3;-0.953674;1228;1229;-0.000499908;1 mA
1231.3;-0.953979;1230;1231;-0.000499908;1 mA
1233.3;-0.954285;1232;1233;-0.000499878;1 mA
1235.3;-0.95459;1234;1235;-0.000499908;1 mA
1237.3;-0.954895;1236;1237;-0.000499908;1 mA
1239.3;-0.9552;1238;1239;-0.000499939;1 mA
1241.3;-0.955505;1240;1241;-0.000499939;1 mA
1243.3;-0.955811;1242;1243;-0.000499908;1 mA
1245.3;-0.956116;1244;1245;-0.000499847;1 mA
1247.3;-0.956421;1246;1247;-0.000499878;1 mA
1249.3;-0.956726;1248;1249;-0.000499969;1 mA
1251.3;-0.957031;1250;1251;-0.000499969;1 mA
1253.3;-0.957336;1252;1253;-0.000499847;1 mA
1255.3;-0.957642;1254;1255;-0.000499908;1 mA
1257.3;-0.957947;1256;1257;-0.000499969;1 mA
1259.3;-0.958252;1258;1259;-0.000499908;1 mA
1261.3;-0.958557;1260;1261;-0.000499908;1 mA
1263.3;-0.958862;1262;1263;-0.000499878;1 mA
1265.3;-0.959167;1264;1265;-0.000499878;1 mA
1267.3;-0.959778;1266;1267;-0.000499969;1 mA
1269.3;-0.960083;1268;1269;-0.000499908;1 mA
1271.3;-0.960388;1270;1271;-0.000499908;1 mA
1273.3;-0.960693;1272;1273;-0.000499908;1 mA
1275.3;-0.960999;1274;1275;-0.000499908;1 mA
1277.3;-0.961304;1276;1277;-0.000499908;1 mA
1279.3;-0.961609;1278;1279;-0.000499908;1 mA
1281.3;-0.961914;1280;1281;-0.000499969;1 mA
1283.3;-0.962219;1282;1283;-0.000499908;1 mA
1285.3;-0.962524;1284;1285;-0.000499939;1 mA
1287.3;-0.96283;1286;1287;-0.000499908;1 mA
1289.3;-0.96344;1288;1289;-0.000499969;1 mA
1291.3;-0.963745;1290;1291;-0.000499908;1 mA
1293.3;-0.96405;1292;1293;-0.000499939;1 mA
1295.3;-0.964355;1294;1295;-0.000499847;1 mA
1297.3;-0.964661;1296;1297;-0.000499908;1 mA
1299.3;-0.964966;1298;1299;-0.000499939;1 mA
1301.3;-0.965271;1300;1301;-0.000499878;1 mA
1303.3;-0.965881;1302;1303;-0.000499908;1 mA
1305.3;-0.966187;1304;1305;-0.000499939;1 mA
1307.3;-0.966492;1306;1307;-0.000499908;1 mA
1309.3;-0.966797;1308;1309;-0.000499908;1 mA
1311.3;-0.967102;1310;1311;-0.000499939;1 mA
1313.3;-0.967407;1312;1313;-0.000499847;1 mA
1315.3;-0.968018;1314;1315;-0.000499939;1 mA
1317.3;-0.968323;1316;1317;-0.000499847;1 mA
1319.3;-0.968628;1318;1319;-0.000499908;1 mA
1321.3;-0.968933;1320;1321;-0.000499908;1 mA
1323.3;-0.969543;1322;1323;-0.000499939;1 mA
1325.3;-0.969849;1324;1325;-0.0005;1 mA
1327.3;-0.970154;1326;1327;-0.000499878;1 mA
1329.3;-0.970459;1328;1329;-0.000499847;1 mA
1331.3;-0.970764;1330;1331;-0.000499908;1 mA
1333.3;-0.971375;1332;1333;-0.000499847;1 mA
1335.3;-0.97168;1334;1335;-0.000499908;1 mA
1337.3;-0.971985;1336;1337;-0.000499939;1 mA
1339.3;-0.972595;1338;1339;-0.000499908;1 mA
1341.3;-0.9729;1340;1341;-0.000499908;1 mA
1343.3;-0.973206;1342;1343;-0.000499878;1 mA
1345.3;-0.973816;1344;1345;-0.000499847;1 mA
1347.3;-0.974121;1346;1347;-0.000499908;1 mA
1349.3;-0.974426;1348;1349;-0.000499878;1 mA
1351.3;-0.975037;1350;1351;-0.000499908;1 mA
1353.3;-0.975342;1352;1353;-0.000499939;1 mA
1355.3;-0.975647;1354;1355;-0.000499939;1 mA
1357.3;-0.976257;1356;1357;-0.000499939;1 mA
1359.3;-0.9765625;1358;1359;-0.000499939;1 mA
1361.3;-0.976868;1360;1361;-0.000499847;1 mA
1363.3;-0.977478;1362;1363;-0.000499939;1 mA
1365.3;-0.977783;1364;1365;-0.000499908;1 mA
1367.3;-0.978394;1366;1367;-0.000499939;1 mA
1369.3;-0.978699;1368;1369;-0.000499878;1 mA
1371.3;-0.979309;1370;1371;-0.000499939;1 mA
1373.3;-0.979614;1372;1373;-0.000499908;1 mA
1375.3;-0.979919;1374;1375;-0.000499939;1 mA
1377.3;-0.98053;1376;1377;-0.000499908;1 mA
1379.3;-0.98114;1378;1379;-0.000499939;1 mA
1381.3;-0.981445;1380;1381;-0.000499969;1 mA
1383.3;-0.982056;1382;1383;-0.000499939;1 mA
1385.3;-0.982361;1384;1385;-0.000499939;1 mA
1387.3;-0.982971;1386;1387;-0.000499908;1 mA
1389.3;-0.983276;1388;1389;-0.000499908;1 mA
1391.3;-0.983887;1390;1391;-0.0005;1 mA
1393.3;-0.984192;1392;1393;-0.000499908;1 mA
1395.3;-0.984802;1394;1395;-0.000499969;1 mA
1397.3;-0.985413;1396;1397;-0.000499969;1 mA
1399.3;-0.985718;1398;1399;-0.000499908;1 mA
1401.3;-0.986328;1400;1401;-0.000499939;1 mA
1403.3;-0.986938;1402;1403;-0.000499939;1 mA
1405.3;-0.987244;1404;1405;-0.000499939;1 mA
1407.3;-0.987854;1406;1407;-0.000499878;1 mA
1409.3;-0.988464;1408;1409;-0.0005;1 mA
1411.3;-0.98877;1410;1411;-0.000499939;1 mA
1413.3;-0.98938;1412;1413;-0.000499847;1 mA
1415.3;-0.98999;1414;1415;-0.000499908;1 mA
1417.3;-0.990601;1416;1417;-0.000499908;1 mA
1419.3;-0.991211;1418;1419;-0.000499908;1 mA
1421.3;-0.991516;1420;1421;-0.000499969;1 mA
1423.3;-0.992126;1422;1423;-0.000499939;1 mA
1425.3;-0.992737;1424;1425;-0.000499939;1 mA
1427.3;-0.993347;1426;1427;-0.000499878;1 mA
1429.3;-0.993958;1428;1429;-0.000499908;1 mA
1431.3;-0.994568;1430;1431;-0.000499908;1 mA
1433.3;-0.995178;1432;1433;-0.000499847;1 mA
1435.3;-0.995789;1434;1435;-0.000499969;1 mA
1437.3;-0.996399;1436;1437;-0.000499908;1 mA
1439.3;-0.997009;1438;1439;-0.000499939;1 mA
1441.3;-0.99762;1440;1441;-0.000499939;1 mA
1443.3;-0.99823;1442;1443;-0.000499969;1 mA
1445.3;-0.99884;1444;1445;-0.000499908;1 mA
1447.3;-0.999451;1446;1447;-0.000499908;1 mA
1449.3;-1.00037;1448;1449;-0.000499908;1 mA
1451.3;-1.00098;1450;1451;-0.000499908;1 mA
1453.3;-1.00159;1452;1453;-0.000499908;1 mA
1455.3;-1.0022;1454;1455;-0.000499939;1 mA
1457.3;-1.00311;1456;1457;-0.000499969;1 mA
1459.3;-1.00372;1458;1459;-0.000499878;1 mA
1461.3;-1.00433;1460;1461;-0.000499878;1 mA
1463.3;-1.00525;1462;1463;-0.000499939;1 mA
1465.3;-1.00586;1464;1465;-0.000499939;1 mA
1467.3;-1.00677;1466;1467;-0.000499878;1 mA
1469.3;-1.00739;1468;1469;-0.000499969;1 mA
1471.3;-1.0083;1470;1471;-0.000499969;1 mA
1473.3;-1.00922;1472;1473;-0.000499908;1 mA
1475.3;-1.00983;1474;1475;-0.000499939;1 mA
1477.3;-1.01074;1476;1477;-0.000499878;1 mA
1479.3;-1.01166;1478;1479;-0.000499939;1 mA
1481.3;-1.01227;1480;1481;-0.000499939;1 mA
1483.3;-1.01318;1482;1483;-0.000499878;1 mA
1485.3;-1.0141;1484;1485;-0.000499908;1 mA
1487.3;-1.01501;1486;1487;-0.000499908;1 mA
1489.3;-1.01593;1488;1489;-0.000499939;1 mA
1491.3;-1.01685;1490;1491;-0.000499939;1 mA
1493.3;-1.01776;1492;1493;-0.000499939;1 mA
1495.3;-1.01868;1494;1495;-0.000499908;1 mA
1497.3;-1.0199;1496;1497;-0.000499939;1 mA
1499.3;-1.02081;1498;1499;-0.000499908;1 mA
1501.3;-1.02173;1500;1501;-0.000499878;1 mA
1503.3;-1.02295;1502;1503;-0.000499878;1 mA
1505.3;-1.02386;1504;1505;-0.000499908;1 mA
1507.3;-1.02509;1506;1507;-0.000499908;1 mA
1509.3;-1.02631;1508;1509;-0.000499878;1 mA
1511.3;-1.02722;1510;1511;-0.000499939;1 mA
1513.3;-1.02844;1512;1513;-0.000499878;1 mA
1515.3;-1.02966;1514;1515;-0.000499847;1 mA
1517.3;-1.03088;1516;1517;-0.000499908;1 mA
1519.3;-1.0321;1518;1519;-0.000499939;1 mA
1521.3;-1.03363;1520;1521;-0.0005;1 mA
1523.3;-1.03485;1522;1523;-0.000499878;1 mA
1525.3;-1.03638;1524;1525;-0.000499939;1 mA
1527.3;-1.0376;1526;1527;-0.000499939;1 mA
1529.3;-1.03912;1528;1529;-0.000499939;1 mA
1531.3;-1.04065;1530;1531;-0.000499878;1 mA
1533.3;-1.04218;1532;1533;-0.000499939;1 mA
1535.3;-1.0437;1534;1535;-0.000499878;1 mA
1537.3;-1.04553;1536;1537;-0.000499908;1 mA
1539.3;-1.04736;1538;1539;-0.0005;1 mA
1541.3;-1.04889;1540;1541;-0.000499939;1 mA
1543.3;-1.05072;1542;1543;-0.000499878;1 mA
1545.3;-1.05286;1544;1545;-0.0005;1 mA
1547.3;-1.05469;1546;1547;-0.000499908;1 mA
1549.3;-1.05682;1548;1549;-0.000499939;1 mA
1551.3;-1.05896;1550;1551;-0.000499939;1 mA
1553.3;-1.0611;1552;1553;-0.000499908;1 mA
1555.3;-1.06354;1554;1555;-0.000499878;1 mA
1557.3;-1.06598;1556;1557;-0.000499969;1 mA
1559.3;-1.06873;1558;1559;-0.000499939;1 mA
1561.3;-1.07117;1560;1561;-0.000499939;1 mA
1563.3;-1.07422;1562;1563;-0.000499939;1 mA
1565.3;-1.07727;1564;1565;-0.000499908;1 mA
1567.3;-1.08032;1566;1567;-0.000499969;1 mA
1569.3;-1.08368;1568;1569;-0.000499908;1 mA
1571.3;-1.08734;1570;1571;-0.000499908;1 mA
1573.3;-1.091;1572;1573;-0.000499908;1 mA
1575.3;-1.09497;1574;1575;-0.000499908;1 mA
1577.3;-1.09924;1576;1577;-0.000499939;1 mA
1579.3;-1.10413;1578;1579;-0.000499939;1 mA
1581.3;-1.10901;1580;1581;-0.000499939;1 mA
1583.3;-1.1145;1582;1583;-0.000499908;1 mA
1585.3;-1.12061;1584;1585;-0.000499908;1 mA
1587.3;-1.12701;1586;1587;-0.000499939;1 mA
1589.3;-1.13403;1588;1589;-0.0005;1 mA
1591.3;-1.14227;1590;1591;-0.000499908;1 mA
1593.3;-1.15112;1592;1593;-0.000499939;1 mA
1595.3;-1.15997;1594;1595;-0.000499969;1 mA
1597.3;-1.17096;1596;1597;-0.000499847;1 mA
1599.3;-1.18744;1598;1599;-0.000499939;1 mA
1601.3;-1.11725;1600;1601;-0.000499939;1 mA
1603.3;-1.1734;1602;1603;-0.000499908;1 mA
1605.3;-1.12091;1604;1605;-0.000499939;1 mA
1607.3;-1.17035;1606;1607;-0.000499939;1 mA
1609.3;-1.12274;1608;1609;-0.000499847;1 mA
1611.3;-1.17676;1610;1611;-0.000499908;1 mA
1613.3;-1.13007;1612;1613;-0.000499939;1 mA
1615.3;-1.28113;1614;1615;-0.000499939;1 mA
1617.3;-1.13586;1616;1617;-0.000499878;1 mA
1619.3;-1.29181;1618;1619;-0.0005;1 mA
1621.3;-1.14441;1620;1621;-0.000499969;1 mA
1623.3;-1.25671;1622;1623;-0.000499939;1 mA
1625.3;-1.15784;1624;1625;-0.000499878;1 mA
1627.3;-1.11786;1626;1627;-0.000499969;1 mA
1629.3;-1.20331;1628;1629;-0.000499939;1 mA
1631.3;-1.13647;1630;1631;-0.000499908;1 mA
1633.3;-1.27167;1632;1633;-0.000499939;1 mA
1635.3;-1.16302;1634;1635;-0.000499939;1 mA
1637.3;-1.12976;1636;1637;-0.000499878;1 mA
1639.3;-1.28723;1638;1639;-0.000499939;1 mA
1641.3;-1.15601;1640;1641;-0.000499878;1 mA
1643.3;-1.1261;1642;1643;-0.000499908;1 mA
1645.3;-1.28601;1644;1645;-0.000499969;1 mA
1647.3;-1.16241;1646;1647;-0.000499939;1 mA
1649.3;-1.138;1648;1649;-0.000499939;1 mA
1651.3;-1.10382;1650;1651;-0.000499939;1 mA
1653.3;-1.29303;1652;1653;-0.000499939;1 mA
1655.3;-1.16058;1654;1655;-0.000499908;1 mA
1657.3;-1.14014;1656;1657;-0.000499908;1 mA
1659.3;-1.12061;1658;1659;-0.000499847;1 mA
1661.3;-1.27808;1660;1661;-0.000499969;1 mA
1663.3;-1.21857;1662;1663;-0.000499939;1 mA
1665.3;-1.16577;1664;1665;-0.000499908;1 mA
1667.3;-1.15143;1666;1667;-0.000499939;1 mA
1669.3;-1.14075;1668;1669;-0.000499939;1 mA
1671.3;-1.13129;1670;1671;-0.000499847;1 mA
1673.3;-1.12091;1672;1673;-0.000499878;1 mA
1675.3;-1.11298;1674;1675;-0.000499939;1 mA
1677.3;-1.18683;1676;1677;-0.0005;1 mA
1679.3;-1.11633;1678;1679;-0.000499908;1 mA
1681.3;-1.11176;1680;1681;-0.000499878;1 mA
1683.3;-1.11572;1682;1683;-0.000499969;1 mA
1685.3;-1.12213;1684;1685;-0.000499939;1 mA
1687.3;-1.12854;1686;1687;-0.000499969;1 mA
1689.3;-1.14014;1688;1689;-0.000499969;1 mA
1691.3;-1.15143;1690;1691;-0.000499969;1 mA
1693.3;-1.16577;1692;1693;-0.000499908;1 mA
1695.3;-1.20575;1694;1695;-0.000499939;1 mA
1697.3;-1.27472;1696;1697;-0.000499969;1 mA
1699.3;-1.11908;1698;1699;-0.000499908;1 mA
1701.3;-1.14899;1700;1701;-0.000499847;1 mA
1703.3;-1.18774;1702;1703;-0.0005;1 mA
1705.3;-1.26648;1704;1705;-0.000499847;1 mA
1707.3;-1.14288;1706;1707;-0.000499969;1 mA
1709.3;-1.19232;1708;1709;-0.000499969;1 mA
1711.3;-1.25275;1710;1711;-0.000499939;1 mA
1713.3;-1.15906;1712;1713;-0.000499939;1 mA
1715.3;-1.27319;1714;1715;-0.0005;1 mA
1717.3;-1.15112;1716;1717;-0.000499878;1 mA
1719.3;-1.27319;1718;1719;-0.000499878;1 mA
1721.3;-1.1557;1720;1721;-0.000499939;1 mA
1723.3;-1.26099;1722;1723;-0.000499908;1 mA
1725.3;-1.18347;1724;1725;-0.000499908;1 mA
1727.3;-1.14227;1726;1727;-0.000499908;1 mA
1729.3;-1.26251;1728;1729;-0.000499939;1 mA
1731.3;-1.21826;1730;1731;-0.000499908;1 mA
1733.3;-1.16882;1732;1733;-0.000499878;1 mA
1735.3;-1.14838;1734;1735;-0.000499878;1 mA
1737.3;-1.14105;1736;1737;-0.000499969;1 mA
1739.3;-1.24695;1738;1739;-0.000499939;1 mA
1741.3;-1.26038;1740;1741;-0.000499969;1 mA
1743.3;-1.26495;1742;1743;-0.000499969;1 mA
1745.3;-1.26587;1744;1745;-0.000499939;1 mA
1747.3;-1.26343;1746;1747;-0.000499939;1 mA
1749.3;-1.26007;1748;1749;-0.000499969;1 mA
1751.3;-1.24237;1750;1751;-0.000499908;1 mA
1753.3;-1.14655;1752;1753;-0.000499939;1 mA
1755.3;-1.18073;1754;1755;-0.000499969;1 mA
1757.3;-1.2616;1756;1757;-0.000499908;1 mA
1759.3;-1.15082;1758;1759;-0.000499908;1 mA
1761.3;-1.2027;1760;1761;-0.000499908;1 mA
1763.3;-1.22681;1762;1763;-0.000499939;1 mA
1765.3;-1.20056;1764;1765;-0.000499847;1 mA
1767.3;-1.20544;1766;1767;-0.000499969;1 mA
1769.3;-1.24664;1768;1769;-0.000499969;1 mA
1771.3;-1.1673;1770;1771;-0.000499908;1 mA
1773.3;-1.23444;1772;1773;-0.000499969;1 mA
1775.3;-1.24908;1774;1775;-0.000499939;1 mA
1777.3;-1.19049;1776;1777;-0.000499939;1 mA
1779.3;-1.16272;1778;1779;-0.000499939;1 mA
1781.3;-1.20636;1780;1781;-0.000499939;1 mA
1783.3;-1.23688;1782;1783;-0.000499939;1 mA
1785.3;-1.24573;1784;1785;-0.000499908;1 mA
1787.3;-1.24725;1786;1787;-0.000499908;1 mA
1789.3;-1.24603;1788;1789;-0.000499969;1 mA
1791.3;-1.24207;1790;1791;-0.000499939;1 mA
1793.3;-1.23291;1792;1793;-0.000499908;1 mA
1795.3;-1.21002;1794;1795;-0.000499908;1 mA
1797.3;-1.18347;1796;1797;-0.000499908;1 mA
1799.3;-1.20392;1798;1799;-0.000499908;1 mA
1800.3;-1.20758;1799;1800;-0.000499878;1 mA