File: Example_Raw_Data_Files/Electrodeposition/Co7.0-FTO_CP_-500µA_30min.txt
Time (s);WE(1).Potential (V);Corrected time (s);Index;WE(1).Current (A);Current range
3.45593;-0.975647;0;1;-0.000500458;1 mA
5.45593;-0.972595;2;3;-0.000500549;1 mA
7.45593;-0.975037;4;5;-0.000500641;1 mA
9.45593;-0.975647;6;7;-0.00050058;1 mA
11.4559;-0.975037;8;9;-0.00050058;1 mA
13.4559;-0.973206;10;11;-0.000500519;1 mA
15.4559;-0.970764;12;13;-0.000500488;1 mA
17.4559;-0.968323;14;15;-0.000500488;1 mA
19.4559;-0.965271;16;17;-0.000500519;1 mA
21.4559;-0.962524;18;19;-0.000500427;1 mA
23.4559;-0.959778;20;21;-0.000500488;1 mA
25.4559;-0.956726;22;23;-0.000500519;1 mA
27.4559;-0.953979;24;25;-0.000500458;1 mA
29.4559;-0.951538;26;27;-0.000500427;1 mA
31.4559;-0.948792;28;29;-0.00050058;1 mA
33.4559;-0.94635;30;31;-0.000500488;1 mA
35.4559;-0.943909;32;33;-0.000500488;1 mA
37.4559;-0.941772;34;35;-0.000500397;1 mA
39.4559;-0.939636;36;37;-0.000500519;1 mA
41.4559;-0.9375;38;39;-0.000500397;1 mA
43.4559;-0.935669;40;41;-0.000500458;1 mA
45.4559;-0.933533;42;43;-0.000500427;1 mA
47.4559;-0.931702;44;45;-0.000500519;1 mA
49.4559;-0.929871;46;47;-0.000500458;1 mA
51.4559;-0.92804;48;49;-0.000500397;1 mA
53.4559;-0.926514;50;51;-0.000500427;1 mA
55.4559;-0.924683;52;53;-0.000500458;1 mA
57.4559;-0.923157;54;55;-0.000500336;1 mA
59.4559;-0.921631;56;57;-0.000500427;1 mA
61.4559;-0.92041;58;59;-0.000500397;1 mA
63.4559;-0.918884;60;61;-0.000500366;1 mA
65.4559;-0.917664;62;63;-0.000500366;1 mA
67.4559;-0.916138;64;65;-0.000500366;1 mA
69.4559;-0.914917;66;67;-0.000500366;1 mA
71.4559;-0.913696;68;69;-0.000500397;1 mA
73.4559;-0.912476;70;71;-0.000500397;1 mA
75.4559;-0.91156;72;73;-0.000500336;1 mA
77.4559;-0.910339;74;75;-0.000500336;1 mA
79.4559;-0.909424;76;77;-0.000500366;1 mA
81.4559;-0.908203;78;79;-0.000500397;1 mA
83.4559;-0.907288;80;81;-0.000500336;1 mA
85.4559;-0.906372;82;83;-0.000500275;1 mA
87.4559;-0.905457;84;85;-0.000500397;1 mA
89.4559;-0.904541;86;87;-0.000500366;1 mA
91.4559;-0.903625;88;89;-0.000500305;1 mA
93.4559;-0.903015;90;91;-0.000500336;1 mA
95.4559;-0.9021;92;93;-0.000500397;1 mA
97.4559;-0.901489;94;95;-0.000500275;1 mA
99.4559;-0.900574;96;97;-0.000500305;1 mA
101.456;-0.899963;98;99;-0.000500275;1 mA
103.456;-0.899048;100;101;-0.000500305;1 mA
105.456;-0.8984375;102;103;-0.000500305;1 mA
107.456;-0.897827;104;105;-0.000500275;1 mA
109.456;-0.897217;106;107;-0.000500244;1 mA
111.456;-0.896606;108;109;-0.000500275;1 mA
113.456;-0.895996;110;111;-0.000500275;1 mA
115.456;-0.895386;112;113;-0.000500305;1 mA
117.456;-0.894775;114;115;-0.000500275;1 mA
119.456;-0.894165;116;117;-0.000500275;1 mA
121.456;-0.893555;118;119;-0.000500214;1 mA
123.456;-0.892944;120;121;-0.000500275;1 mA
125.456;-0.892639;122;123;-0.000500275;1 mA
127.456;-0.892029;124;125;-0.000500275;1 mA
129.456;-0.891418;126;127;-0.000500244;1 mA
131.456;-0.891113;128;129;-0.000500244;1 mA
133.456;-0.890503;130;131;-0.000500275;1 mA
135.456;-0.889893;132;133;-0.000500275;1 mA
137.456;-0.889587;134;135;-0.000500305;1 mA
139.456;-0.888977;136;137;-0.000500275;1 mA
141.456;-0.888672;138;139;-0.000500244;1 mA
143.456;-0.888062;140;141;-0.000500366;1 mA
145.456;-0.887756;142;143;-0.000500214;1 mA
147.456;-0.887451;144;145;-0.000500275;1 mA
149.456;-0.886841;146;147;-0.000500214;1 mA
151.456;-0.886536;148;149;-0.000500214;1 mA
153.456;-0.88623;150;151;-0.000500275;1 mA
155.456;-0.885925;152;153;-0.000500183;1 mA
157.456;-0.885315;154;155;-0.000500244;1 mA
159.456;-0.88501;156;157;-0.000500214;1 mA
161.456;-0.884705;158;159;-0.000500244;1 mA
163.456;-0.884399;160;161;-0.000500183;1 mA
165.456;-0.883789;162;163;-0.000500214;1 mA
167.456;-0.883484;164;165;-0.000500275;1 mA
169.456;-0.883179;166;167;-0.000500183;1 mA
171.456;-0.882874;168;169;-0.000500244;1 mA
173.456;-0.882568;170;171;-0.000500183;1 mA
175.456;-0.882263;172;173;-0.000500214;1 mA
177.456;-0.881958;174;175;-0.000500214;1 mA
179.456;-0.881653;176;177;-0.000500214;1 mA
181.456;-0.881348;178;179;-0.000500214;1 mA
183.456;-0.881042;180;181;-0.000500214;1 mA
185.456;-0.880737;182;183;-0.000500122;1 mA
187.456;-0.880432;184;185;-0.000500244;1 mA
189.456;-0.880127;186;187;-0.000500183;1 mA
191.456;-0.879822;188;189;-0.000500244;1 mA
193.456;-0.879517;190;191;-0.000500214;1 mA
195.456;-0.879211;192;193;-0.000500214;1 mA
197.456;-0.878906;194;195;-0.000500153;1 mA
199.456;-0.878601;196;197;-0.000500214;1 mA
201.456;-0.878296;198;199;-0.000500183;1 mA
203.456;-0.877991;200;201;-0.000500153;1 mA
205.456;-0.877686;202;203;-0.000500153;1 mA
207.456;-0.87738;204;205;-0.000500153;1 mA
209.456;-0.87738;206;207;-0.000500214;1 mA
211.456;-0.877075;208;209;-0.000500183;1 mA
213.456;-0.87677;210;211;-0.000500153;1 mA
215.456;-0.876465;212;213;-0.000500244;1 mA
217.456;-0.87616;214;215;-0.000500183;1 mA
219.456;-0.875854;216;217;-0.000500122;1 mA
221.456;-0.875854;218;219;-0.000500183;1 mA
223.456;-0.875549;220;221;-0.000500122;1 mA
225.456;-0.875244;222;223;-0.000500153;1 mA
227.456;-0.874939;224;225;-0.000500214;1 mA
229.456;-0.874939;226;227;-0.000500092;1 mA
231.456;-0.874634;228;229;-0.000500183;1 mA
233.456;-0.874329;230;231;-0.000500183;1 mA
235.456;-0.874023;232;233;-0.000500122;1 mA
237.456;-0.874023;234;235;-0.000500183;1 mA
239.456;-0.873718;236;237;-0.000500092;1 mA
241.456;-0.873413;238;239;-0.000500153;1 mA
243.456;-0.873413;240;241;-0.000500214;1 mA
245.456;-0.873108;242;243;-0.000500153;1 mA
247.456;-0.872803;244;245;-0.000500061;1 mA
249.456;-0.872803;246;247;-0.000500092;1 mA
251.456;-0.872498;248;249;-0.000500153;1 mA
253.456;-0.872192;250;251;-0.000500153;1 mA
255.456;-0.872192;252;253;-0.000500153;1 mA
257.456;-0.871887;254;255;-0.000500061;1 mA
259.456;-0.871887;256;257;-0.000500122;1 mA
261.456;-0.871582;258;259;-0.000500092;1 mA
263.456;-0.871277;260;261;-0.000500092;1 mA
265.456;-0.871277;262;263;-0.000500092;1 mA
267.456;-0.870972;264;265;-0.000500061;1 mA
269.456;-0.870667;266;267;-0.000500183;1 mA
271.456;-0.870667;268;269;-0.000500061;1 mA
273.456;-0.870361;270;271;-0.000500122;1 mA
275.456;-0.870361;272;273;-0.000500122;1 mA
277.456;-0.870056;274;275;-0.000500153;1 mA
279.456;-0.870056;276;277;-0.000500153;1 mA
281.456;-0.869751;278;279;-0.000500122;1 mA
283.456;-0.869751;280;281;-0.000500092;1 mA
285.456;-0.869446;282;283;-0.000500092;1 mA
287.456;-0.869446;284;285;-0.000500122;1 mA
289.456;-0.869141;286;287;-0.000500122;1 mA
291.456;-0.869141;288;289;-0.000500122;1 mA
293.456;-0.868835;290;291;-0.000500061;1 mA
295.456;-0.86853;292;293;-0.000500153;1 mA
297.456;-0.86853;294;295;-0.000500092;1 mA
299.456;-0.868225;296;297;-0.000500153;1 mA
301.456;-0.868225;298;299;-0.000500122;1 mA
303.456;-0.86792;300;301;-0.000500153;1 mA
305.456;-0.86792;302;303;-0.000500092;1 mA
307.456;-0.86792;304;305;-0.000500153;1 mA
309.456;-0.867615;306;307;-0.000500092;1 mA
311.456;-0.867615;308;309;-0.000500092;1 mA
313.456;-0.86731;310;311;-0.000500092;1 mA
315.456;-0.86731;312;313;-0.000500092;1 mA
317.456;-0.867004;314;315;-0.000500092;1 mA
319.456;-0.867004;316;317;-0.000500122;1 mA
321.456;-0.866699;318;319;-0.000500122;1 mA
323.456;-0.866699;320;321;-0.000500122;1 mA
325.456;-0.866699;322;323;-0.0005;1 mA
327.456;-0.866394;324;325;-0.000500122;1 mA
329.456;-0.866394;326;327;-0.000500122;1 mA
331.456;-0.866089;328;329;-0.000500122;1 mA
333.456;-0.866089;330;331;-0.000500031;1 mA
335.456;-0.866089;332;333;-0.000500122;1 mA
337.456;-0.865784;334;335;-0.000500061;1 mA
339.456;-0.865784;336;337;-0.000500092;1 mA
341.456;-0.865479;338;339;-0.000500092;1 mA
343.456;-0.865479;340;341;-0.000500122;1 mA
345.456;-0.865479;342;343;-0.000500061;1 mA
347.456;-0.865173;344;345;-0.000500061;1 mA
349.456;-0.865173;346;347;-0.000500092;1 mA
351.456;-0.865173;348;349;-0.000500061;1 mA
353.456;-0.864868;350;351;-0.000500092;1 mA
355.456;-0.864868;352;353;-0.000500061;1 mA
357.456;-0.864563;354;355;-0.000500122;1 mA
359.456;-0.864563;356;357;-0.000500092;1 mA
361.456;-0.864563;358;359;-0.000500031;1 mA
363.456;-0.864258;360;361;-0.000500153;1 mA
365.456;-0.864258;362;363;-0.000500092;1 mA
367.456;-0.864258;364;365;-0.000500031;1 mA
369.456;-0.864258;366;367;-0.000500092;1 mA
371.456;-0.863953;368;369;-0.000500061;1 mA
373.456;-0.863953;370;371;-0.000500092;1 mA
375.456;-0.863647;372;373;-0.000500092;1 mA
377.456;-0.863647;374;375;-0.000500031;1 mA
379.456;-0.863647;376;377;-0.000500122;1 mA
381.456;-0.863647;378;379;-0.000500061;1 mA
383.456;-0.863342;380;381;-0.000500061;1 mA
385.456;-0.863342;382;383;-0.000500092;1 mA
387.456;-0.863342;384;385;-0.000500061;1 mA
389.456;-0.863037;386;387;-0.000500122;1 mA
391.456;-0.863037;388;389;-0.000500092;1 mA
393.456;-0.863037;390;391;-0.000500092;1 mA
395.456;-0.862732;392;393;-0.0005;1 mA
397.456;-0.862732;394;395;-0.000500031;1 mA
399.456;-0.862732;396;397;-0.000500092;1 mA
401.456;-0.862732;398;399;-0.000500092;1 mA
403.456;-0.862427;400;401;-0.000500061;1 mA
405.456;-0.862427;402;403;-0.0005;1 mA
407.456;-0.862427;404;405;-0.000500061;1 mA
409.456;-0.862427;406;407;-0.000500061;1 mA
411.456;-0.862122;408;409;-0.000500061;1 mA
413.456;-0.862122;410;411;-0.000500061;1 mA
415.456;-0.862122;412;413;-0.000500031;1 mA
417.456;-0.862122;414;415;-0.0005;1 mA
419.456;-0.861816;416;417;-0.000500061;1 mA
421.456;-0.861816;418;419;-0.000500031;1 mA
423.456;-0.861816;420;421;-0.0005;1 mA
425.456;-0.861816;422;423;-0.000500122;1 mA
427.456;-0.861511;424;425;-0.0005;1 mA
429.456;-0.861511;426;427;-0.000500092;1 mA
431.456;-0.861511;428;429;-0.000500061;1 mA
433.456;-0.861511;430;431;-0.000500061;1 mA
435.456;-0.861206;432;433;-0.000500031;1 mA
437.456;-0.861206;434;435;-0.0005;1 mA
439.456;-0.861206;436;437;-0.0005;1 mA
441.456;-0.861206;438;439;-0.000500061;1 mA
443.456;-0.860901;440;441;-0.0005;1 mA
445.456;-0.860901;442;443;-0.000500031;1 mA
447.456;-0.860901;444;445;-0.000500092;1 mA
449.456;-0.860901;446;447;-0.000500031;1 mA
451.456;-0.860901;448;449;-0.000500031;1 mA
453.456;-0.860596;450;451;-0.000500061;1 mA
455.456;-0.860596;452;453;-0.000500031;1 mA
457.456;-0.860596;454;455;-0.000500031;1 mA
459.456;-0.860596;456;457;-0.0005;1 mA
461.456;-0.860596;458;459;-0.0005;1 mA
463.456;-0.860291;460;461;-0.0005;1 mA
465.456;-0.860291;462;463;-0.000500061;1 mA
467.456;-0.860291;464;465;-0.0005;1 mA
469.456;-0.860291;466;467;-0.000500031;1 mA
471.456;-0.860291;468;469;-0.0005;1 mA
473.456;-0.860291;470;471;-0.000500031;1 mA
475.456;-0.859985;472;473;-0.0005;1 mA
477.456;-0.859985;474;475;-0.0005;1 mA
479.456;-0.859985;476;477;-0.0005;1 mA
481.456;-0.859985;478;479;-0.000500031;1 mA
483.456;-0.859985;480;481;-0.0005;1 mA
485.456;-0.859985;482;483;-0.000499969;1 mA
487.456;-0.85968;484;485;-0.0005;1 mA
489.456;-0.85968;486;487;-0.000500061;1 mA
491.456;-0.85968;488;489;-0.0005;1 mA
493.456;-0.85968;490;491;-0.000500061;1 mA
495.456;-0.85968;492;493;-0.0005;1 mA
497.456;-0.85968;494;495;-0.000500031;1 mA
499.456;-0.85968;496;497;-0.000500092;1 mA
501.456;-0.859375;498;499;-0.000500061;1 mA
503.456;-0.859375;500;501;-0.000500031;1 mA
505.456;-0.859375;502;503;-0.000500061;1 mA
507.456;-0.859375;504;505;-0.000500031;1 mA
509.456;-0.859375;506;507;-0.000500031;1 mA
511.456;-0.859375;508;509;-0.000500031;1 mA
513.456;-0.859375;510;511;-0.0005;1 mA
515.456;-0.859375;512;513;-0.000500031;1 mA
517.456;-0.85907;514;515;-0.000500061;1 mA
519.456;-0.85907;516;517;-0.000500061;1 mA
521.456;-0.85907;518;519;-0.0005;1 mA
523.456;-0.85907;520;521;-0.000500031;1 mA
525.456;-0.85907;522;523;-0.000500031;1 mA
527.456;-0.85907;524;525;-0.0005;1 mA
529.456;-0.85907;526;527;-0.0005;1 mA
531.456;-0.85907;528;529;-0.0005;1 mA
533.456;-0.85907;530;531;-0.0005;1 mA
535.456;-0.85907;532;533;-0.000500031;1 mA
537.456;-0.858765;534;535;-0.000500061;1 mA
539.456;-0.858765;536;537;-0.0005;1 mA
541.456;-0.858765;538;539;-0.000500031;1 mA
543.456;-0.858765;540;541;-0.000500092;1 mA
545.456;-0.858765;542;543;-0.0005;1 mA
547.456;-0.858765;544;545;-0.000500031;1 mA
549.456;-0.858765;546;547;-0.000500061;1 mA
551.456;-0.858765;548;549;-0.0005;1 mA
553.456;-0.858765;550;551;-0.0005;1 mA
555.456;-0.858765;552;553;-0.000500031;1 mA
557.456;-0.858459;554;555;-0.0005;1 mA
559.456;-0.858459;556;557;-0.0005;1 mA
561.456;-0.858459;558;559;-0.0005;1 mA
563.456;-0.858459;560;561;-0.0005;1 mA
565.456;-0.858459;562;563;-0.0005;1 mA
567.456;-0.858459;564;565;-0.0005;1 mA
569.456;-0.858459;566;567;-0.000500061;1 mA
571.456;-0.858459;568;569;-0.0005;1 mA
573.456;-0.858459;570;571;-0.0005;1 mA
575.456;-0.858459;572;573;-0.0005;1 mA
577.456;-0.858459;574;575;-0.000500031;1 mA
579.456;-0.858459;576;577;-0.0005;1 mA
581.456;-0.858459;578;579;-0.000500061;1 mA
583.456;-0.858459;580;581;-0.000499969;1 mA
585.456;-0.858459;582;583;-0.0005;1 mA
587.456;-0.858154;584;585;-0.000500031;1 mA
589.456;-0.858154;586;587;-0.000500031;1 mA
591.456;-0.858154;588;589;-0.0005;1 mA
593.456;-0.858154;590;591;-0.000499969;1 mA
595.456;-0.858154;592;593;-0.0005;1 mA
597.456;-0.858154;594;595;-0.000500061;1 mA
599.456;-0.858154;596;597;-0.0005;1 mA
601.456;-0.858154;598;599;-0.000500031;1 mA
603.456;-0.858154;600;601;-0.000500031;1 mA
605.456;-0.858154;602;603;-0.0005;1 mA
607.456;-0.858154;604;605;-0.0005;1 mA
609.456;-0.858154;606;607;-0.0005;1 mA
611.456;-0.858154;608;609;-0.0005;1 mA
613.456;-0.858154;610;611;-0.000500031;1 mA
615.456;-0.858154;612;613;-0.000499969;1 mA
617.456;-0.858154;614;615;-0.000499969;1 mA
619.456;-0.858154;616;617;-0.0005;1 mA
621.456;-0.858154;618;619;-0.0005;1 mA
623.456;-0.858154;620;621;-0.000499969;1 mA
625.456;-0.858154;622;623;-0.0005;1 mA
627.456;-0.858154;624;625;-0.0005;1 mA
629.456;-0.858154;626;627;-0.0005;1 mA
631.456;-0.858154;628;629;-0.000499969;1 mA
633.456;-0.858154;630;631;-0.0005;1 mA
635.456;-0.858154;632;633;-0.0005;1 mA
637.456;-0.858154;634;635;-0.0005;1 mA
639.456;-0.858154;636;637;-0.0005;1 mA
641.456;-0.858154;638;639;-0.0005;1 mA
643.456;-0.858154;640;641;-0.000500031;1 mA
645.456;-0.858154;642;643;-0.000500061;1 mA
647.456;-0.858154;644;645;-0.0005;1 mA
649.456;-0.857849;646;647;-0.0005;1 mA
651.456;-0.858154;648;649;-0.000500031;1 mA
653.456;-0.857849;650;651;-0.0005;1 mA
655.456;-0.857849;652;653;-0.0005;1 mA
657.456;-0.857849;654;655;-0.000499969;1 mA
659.456;-0.857849;656;657;-0.0005;1 mA
661.456;-0.858154;658;659;-0.0005;1 mA
663.456;-0.857849;660;661;-0.0005;1 mA
665.456;-0.858154;662;663;-0.0005;1 mA
667.456;-0.857849;664;665;-0.0005;1 mA
669.456;-0.858154;666;667;-0.0005;1 mA
671.456;-0.858154;668;669;-0.0005;1 mA
673.456;-0.857849;670;671;-0.0005;1 mA
675.456;-0.858154;672;673;-0.000499969;1 mA
677.456;-0.858154;674;675;-0.000499969;1 mA
679.456;-0.858154;676;677;-0.000500031;1 mA
681.456;-0.858154;678;679;-0.000499969;1 mA
683.456;-0.858154;680;681;-0.0005;1 mA
685.456;-0.858154;682;683;-0.000499969;1 mA
687.456;-0.858154;684;685;-0.0005;1 mA
689.456;-0.858154;686;687;-0.0005;1 mA
691.456;-0.858154;688;689;-0.000499969;1 mA
693.456;-0.858154;690;691;-0.000499969;1 mA
695.456;-0.858154;692;693;-0.0005;1 mA
697.456;-0.858154;694;695;-0.0005;1 mA
699.456;-0.858154;696;697;-0.000500031;1 mA
701.456;-0.858154;698;699;-0.000499969;1 mA
703.456;-0.858154;700;701;-0.0005;1 mA
705.456;-0.858154;702;703;-0.0005;1 mA
707.456;-0.858154;704;705;-0.0005;1 mA
709.456;-0.858154;706;707;-0.0005;1 mA
711.456;-0.858154;708;709;-0.000499969;1 mA
713.456;-0.858154;710;711;-0.0005;1 mA
715.456;-0.858154;712;713;-0.0005;1 mA
717.456;-0.858154;714;715;-0.0005;1 mA
719.456;-0.858154;716;717;-0.0005;1 mA
721.456;-0.858154;718;719;-0.0005;1 mA
723.456;-0.858154;720;721;-0.0005;1 mA
725.456;-0.858154;722;723;-0.000499969;1 mA
727.456;-0.858154;724;725;-0.0005;1 mA
729.456;-0.858154;726;727;-0.000499969;1 mA
731.456;-0.858154;728;729;-0.0005;1 mA
733.456;-0.858459;730;731;-0.000499969;1 mA
735.456;-0.858459;732;733;-0.0005;1 mA
737.456;-0.858459;734;735;-0.000500031;1 mA
739.456;-0.858459;736;737;-0.0005;1 mA
741.456;-0.858459;738;739;-0.0005;1 mA
743.456;-0.858459;740;741;-0.0005;1 mA
745.456;-0.858459;742;743;-0.000499969;1 mA
747.456;-0.858459;744;745;-0.000499969;1 mA
749.456;-0.858459;746;747;-0.000500031;1 mA
751.456;-0.858459;748;749;-0.0005;1 mA
753.456;-0.858459;750;751;-0.0005;1 mA
755.456;-0.858459;752;753;-0.000499969;1 mA
757.456;-0.858459;754;755;-0.0005;1 mA
759.456;-0.858459;756;757;-0.0005;1 mA
761.456;-0.858459;758;759;-0.0005;1 mA
763.456;-0.858765;760;761;-0.0005;1 mA
765.456;-0.858765;762;763;-0.0005;1 mA
767.456;-0.858765;764;765;-0.000499969;1 mA
769.456;-0.858765;766;767;-0.0005;1 mA
771.456;-0.858765;768;769;-0.0005;1 mA
773.456;-0.858765;770;771;-0.000499969;1 mA
775.456;-0.858765;772;773;-0.000499969;1 mA
777.456;-0.858765;774;775;-0.000499939;1 mA
779.456;-0.858765;776;777;-0.0005;1 mA
781.456;-0.858765;778;779;-0.0005;1 mA
783.456;-0.858765;780;781;-0.000499969;1 mA
785.456;-0.858765;782;783;-0.000499908;1 mA
787.456;-0.858765;784;785;-0.0005;1 mA
789.456;-0.858765;786;787;-0.0005;1 mA
791.456;-0.85907;788;789;-0.000499969;1 mA
793.456;-0.85907;790;791;-0.0005;1 mA
795.456;-0.85907;792;793;-0.0005;1 mA
797.456;-0.85907;794;795;-0.0005;1 mA
799.456;-0.85907;796;797;-0.000499939;1 mA
801.456;-0.85907;798;799;-0.0005;1 mA
803.456;-0.85907;800;801;-0.000499939;1 mA
805.456;-0.85907;802;803;-0.0005;1 mA
807.456;-0.85907;804;805;-0.0005;1 mA
809.456;-0.85907;806;807;-0.0005;1 mA
811.456;-0.85907;808;809;-0.000499939;1 mA
813.456;-0.85907;810;811;-0.0005;1 mA
815.456;-0.859375;812;813;-0.000499939;1 mA
817.456;-0.859375;814;815;-0.000499969;1 mA
819.456;-0.859375;816;817;-0.0005;1 mA
821.456;-0.859375;818;819;-0.000499939;1 mA
823.456;-0.859375;820;821;-0.0005;1 mA
825.456;-0.859375;822;823;-0.0005;1 mA
827.456;-0.859375;824;825;-0.000499969;1 mA
829.456;-0.859375;826;827;-0.000499908;1 mA
831.456;-0.859375;828;829;-0.0005;1 mA
833.456;-0.859375;830;831;-0.0005;1 mA
835.456;-0.85968;832;833;-0.000499969;1 mA
837.456;-0.85968;834;835;-0.000499969;1 mA
839.456;-0.85968;836;837;-0.000499969;1 mA
841.456;-0.85968;838;839;-0.0005;1 mA
843.456;-0.85968;840;841;-0.0005;1 mA
845.456;-0.85968;842;843;-0.0005;1 mA
847.456;-0.85968;844;845;-0.0005;1 mA
849.456;-0.85968;846;847;-0.000499939;1 mA
851.456;-0.859985;848;849;-0.0005;1 mA
853.456;-0.859985;850;851;-0.000499969;1 mA
855.456;-0.859985;852;853;-0.0005;1 mA
857.456;-0.859985;854;855;-0.000499939;1 mA
859.456;-0.859985;856;857;-0.000499969;1 mA
861.456;-0.859985;858;859;-0.0005;1 mA
863.456;-0.859985;860;861;-0.000499908;1 mA
865.456;-0.859985;862;863;-0.000499939;1 mA
867.456;-0.859985;864;865;-0.0005;1 mA
869.456;-0.860291;866;867;-0.0005;1 mA
871.456;-0.860291;868;869;-0.0005;1 mA
873.456;-0.860291;870;871;-0.0005;1 mA
875.456;-0.860291;872;873;-0.000499939;1 mA
877.456;-0.860291;874;875;-0.0005;1 mA
879.456;-0.860291;876;877;-0.000499939;1 mA
881.456;-0.860291;878;879;-0.000499969;1 mA
883.456;-0.860291;880;881;-0.000499969;1 mA
885.456;-0.860596;882;883;-0.0005;1 mA
887.456;-0.860596;884;885;-0.000499939;1 mA
889.456;-0.860596;886;887;-0.000499908;1 mA
891.456;-0.860596;888;889;-0.000499969;1 mA
893.456;-0.860596;890;891;-0.000499969;1 mA
895.456;-0.860596;892;893;-0.0005;1 mA
897.456;-0.860596;894;895;-0.000499969;1 mA
899.456;-0.860901;896;897;-0.0005;1 mA
901.456;-0.860901;898;899;-0.000499969;1 mA
903.456;-0.860901;900;901;-0.000499969;1 mA
905.456;-0.860901;902;903;-0.000499939;1 mA
907.456;-0.860901;904;905;-0.000499939;1 mA
909.456;-0.860901;906;907;-0.000499969;1 mA
911.456;-0.860901;908;909;-0.000499969;1 mA
913.456;-0.861206;910;911;-0.000499939;1 mA
915.456;-0.861206;912;913;-0.000499969;1 mA
917.456;-0.861206;914;915;-0.000499969;1 mA
919.456;-0.861206;916;917;-0.000499969;1 mA
921.456;-0.861206;918;919;-0.000499939;1 mA
923.456;-0.861206;920;921;-0.0005;1 mA
925.456;-0.861206;922;923;-0.0005;1 mA
927.456;-0.861511;924;925;-0.000499969;1 mA
929.456;-0.861511;926;927;-0.0005;1 mA
931.456;-0.861511;928;929;-0.000499969;1 mA
933.456;-0.861511;930;931;-0.0005;1 mA
935.456;-0.861511;932;933;-0.0005;1 mA
937.456;-0.861511;934;935;-0.000499939;1 mA
939.456;-0.861511;936;937;-0.0005;1 mA
941.456;-0.861816;938;939;-0.000499969;1 mA
943.456;-0.861816;940;941;-0.0005;1 mA
945.456;-0.861816;942;943;-0.000499969;1 mA
947.456;-0.861816;944;945;-0.000499969;1 mA
949.456;-0.861816;946;947;-0.0005;1 mA
951.456;-0.861816;948;949;-0.000499939;1 mA
953.456;-0.861816;950;951;-0.0005;1 mA
955.456;-0.862122;952;953;-0.000499969;1 mA
957.456;-0.862122;954;955;-0.000499939;1 mA
959.456;-0.862122;956;957;-0.000499969;1 mA
961.456;-0.862122;958;959;-0.000499969;1 mA
963.456;-0.862122;960;961;-0.0005;1 mA
965.456;-0.862122;962;963;-0.0005;1 mA
967.456;-0.862427;964;965;-0.0005;1 mA
969.456;-0.862427;966;967;-0.0005;1 mA
971.456;-0.862427;968;969;-0.000499969;1 mA
973.456;-0.862427;970;971;-0.0005;1 mA
975.456;-0.862427;972;973;-0.000499969;1 mA
977.456;-0.862427;974;975;-0.0005;1 mA
979.456;-0.862732;976;977;-0.000499939;1 mA
981.456;-0.862732;978;979;-0.0005;1 mA
983.456;-0.862732;980;981;-0.0005;1 mA
985.456;-0.862732;982;983;-0.000499939;1 mA
987.456;-0.862732;984;985;-0.000499847;1 mA
989.456;-0.862732;986;987;-0.000499969;1 mA
991.456;-0.863037;988;989;-0.0005;1 mA
993.456;-0.863037;990;991;-0.000499939;1 mA
995.456;-0.863037;992;993;-0.000499939;1 mA
997.456;-0.863037;994;995;-0.000499908;1 mA
999.456;-0.863037;996;997;-0.000499939;1 mA
1001.46;-0.863037;998;999;-0.000499969;1 mA
1003.46;-0.863342;1000;1001;-0.000499939;1 mA
1005.46;-0.863342;1002;1003;-0.000499969;1 mA
1007.46;-0.863342;1004;1005;-0.000499939;1 mA
1009.46;-0.863342;1006;1007;-0.000499969;1 mA
1011.46;-0.863342;1008;1009;-0.000499939;1 mA
1013.46;-0.863342;1010;1011;-0.000499969;1 mA
1015.46;-0.863647;1012;1013;-0.000499939;1 mA
1017.46;-0.863647;1014;1015;-0.000499969;1 mA
1019.46;-0.863647;1016;1017;-0.000499969;1 mA
1021.46;-0.863647;1018;1019;-0.000499939;1 mA
1023.46;-0.863647;1020;1021;-0.0005;1 mA
1025.46;-0.863647;1022;1023;-0.000499939;1 mA
1027.46;-0.863953;1024;1025;-0.0005;1 mA
1029.46;-0.863953;1026;1027;-0.0005;1 mA
1031.46;-0.863953;1028;1029;-0.000499969;1 mA
1033.46;-0.863953;1030;1031;-0.000499969;1 mA
1035.46;-0.863953;1032;1033;-0.000499939;1 mA
1037.46;-0.864258;1034;1035;-0.000499969;1 mA
1039.46;-0.864258;1036;1037;-0.0005;1 mA
1041.46;-0.864258;1038;1039;-0.0005;1 mA
1043.46;-0.864258;1040;1041;-0.0005;1 mA
1045.46;-0.864258;1042;1043;-0.000499908;1 mA
1047.46;-0.864258;1044;1045;-0.0005;1 mA
1049.46;-0.864563;1046;1047;-0.000499939;1 mA
1051.46;-0.864563;1048;1049;-0.000499969;1 mA
1053.46;-0.864563;1050;1051;-0.000499908;1 mA
1055.46;-0.864563;1052;1053;-0.000499908;1 mA
1057.46;-0.864563;1054;1055;-0.0005;1 mA
1059.46;-0.864868;1056;1057;-0.000499969;1 mA
1061.46;-0.864868;1058;1059;-0.000499969;1 mA
1063.46;-0.864868;1060;1061;-0.000499969;1 mA
1065.46;-0.864868;1062;1063;-0.000499939;1 mA
1067.46;-0.864868;1064;1065;-0.0005;1 mA
1069.46;-0.864868;1066;1067;-0.0005;1 mA
1071.46;-0.865173;1068;1069;-0.000499939;1 mA
1073.46;-0.865173;1070;1071;-0.000499969;1 mA
1075.46;-0.865173;1072;1073;-0.000499939;1 mA
1077.46;-0.865173;1074;1075;-0.000499939;1 mA
1079.46;-0.865173;1076;1077;-0.0005;1 mA
1081.46;-0.865479;1078;1079;-0.0005;1 mA
1083.46;-0.865479;1080;1081;-0.0005;1 mA
1085.46;-0.865479;1082;1083;-0.0005;1 mA
1087.46;-0.865479;1084;1085;-0.0005;1 mA
1089.46;-0.865479;1086;1087;-0.0005;1 mA
1091.46;-0.865479;1088;1089;-0.000499939;1 mA
1093.46;-0.865784;1090;1091;-0.0005;1 mA
1095.46;-0.865784;1092;1093;-0.0005;1 mA
1097.46;-0.865784;1094;1095;-0.000499969;1 mA
1099.46;-0.865784;1096;1097;-0.0005;1 mA
1101.46;-0.865784;1098;1099;-0.0005;1 mA
1103.46;-0.866089;1100;1101;-0.000499939;1 mA
1105.46;-0.866089;1102;1103;-0.000499939;1 mA
1107.46;-0.866089;1104;1105;-0.000499969;1 mA
1109.46;-0.866089;1106;1107;-0.000499908;1 mA
1111.46;-0.866089;1108;1109;-0.000499939;1 mA
1113.46;-0.866394;1110;1111;-0.000499969;1 mA
1115.46;-0.866394;1112;1113;-0.000499969;1 mA
1117.46;-0.866394;1114;1115;-0.000499969;1 mA
1119.46;-0.866394;1116;1117;-0.000499969;1 mA
1121.46;-0.866394;1118;1119;-0.0005;1 mA
1123.46;-0.866699;1120;1121;-0.000499908;1 mA
1125.46;-0.866699;1122;1123;-0.000499969;1 mA
1127.46;-0.866699;1124;1125;-0.0005;1 mA
1129.46;-0.866699;1126;1127;-0.0005;1 mA
1131.46;-0.866699;1128;1129;-0.000499939;1 mA
1133.46;-0.866699;1130;1131;-0.000499969;1 mA
1135.46;-0.867004;1132;1133;-0.000499908;1 mA
1137.46;-0.867004;1134;1135;-0.0005;1 mA
1139.46;-0.867004;1136;1137;-0.000499969;1 mA
1141.46;-0.867004;1138;1139;-0.000499939;1 mA
1143.46;-0.867004;1140;1141;-0.000499939;1 mA
1145.46;-0.86731;1142;1143;-0.000499878;1 mA
1147.46;-0.86731;1144;1145;-0.000499969;1 mA
1149.46;-0.86731;1146;1147;-0.000499939;1 mA
1151.46;-0.86731;1148;1149;-0.000499939;1 mA
1153.46;-0.86731;1150;1151;-0.000499969;1 mA
1155.46;-0.867615;1152;1153;-0.000499939;1 mA
1157.46;-0.867615;1154;1155;-0.000499969;1 mA
1159.46;-0.867615;1156;1157;-0.000499969;1 mA
1161.46;-0.867615;1158;1159;-0.000499908;1 mA
1163.46;-0.867615;1160;1161;-0.000499969;1 mA
1165.46;-0.86792;1162;1163;-0.0005;1 mA
1167.46;-0.86792;1164;1165;-0.000499908;1 mA
1169.46;-0.86792;1166;1167;-0.000499969;1 mA
1171.46;-0.86792;1168;1169;-0.000499939;1 mA
1173.46;-0.86792;1170;1171;-0.000499969;1 mA
1175.46;-0.868225;1172;1173;-0.000499939;1 mA
1177.46;-0.868225;1174;1175;-0.0005;1 mA
1179.46;-0.868225;1176;1177;-0.000500031;1 mA
1181.46;-0.868225;1178;1179;-0.000499969;1 mA
1183.46;-0.868225;1180;1181;-0.000499969;1 mA
1185.46;-0.86853;1182;1183;-0.000499939;1 mA
1187.46;-0.86853;1184;1185;-0.000499908;1 mA
1189.46;-0.86853;1186;1187;-0.000499969;1 mA
1191.46;-0.86853;1188;1189;-0.000499969;1 mA
1193.46;-0.86853;1190;1191;-0.000499969;1 mA
1195.46;-0.868835;1192;1193;-0.000499939;1 mA
1197.46;-0.868835;1194;1195;-0.000499908;1 mA
1199.46;-0.868835;1196;1197;-0.000499939;1 mA
1201.46;-0.868835;1198;1199;-0.000499939;1 mA
1203.46;-0.868835;1200;1201;-0.000499908;1 mA
1205.46;-0.869141;1202;1203;-0.000499939;1 mA
1207.46;-0.869141;1204;1205;-0.000499878;1 mA
1209.46;-0.869141;1206;1207;-0.000499969;1 mA
1211.46;-0.869141;1208;1209;-0.000499969;1 mA
1213.46;-0.869141;1210;1211;-0.0005;1 mA
1215.46;-0.869446;1212;1213;-0.000499939;1 mA
1217.46;-0.869446;1214;1215;-0.000499939;1 mA
1219.46;-0.869446;1216;1217;-0.000499939;1 mA
1221.46;-0.869446;1218;1219;-0.000499969;1 mA
1223.46;-0.869446;1220;1221;-0.000499939;1 mA
1225.46;-0.869751;1222;1223;-0.000499969;1 mA
1227.46;-0.869751;1224;1225;-0.000499969;1 mA
1229.46;-0.869751;1226;1227;-0.000499939;1 mA
1231.46;-0.869751;1228;1229;-0.0005;1 mA
1233.46;-0.869751;1230;1231;-0.000499908;1 mA
1235.46;-0.870056;1232;1233;-0.0005;1 mA
1237.46;-0.870056;1234;1235;-0.000499939;1 mA
1239.46;-0.870056;1236;1237;-0.000499969;1 mA
1241.46;-0.870056;1238;1239;-0.000499969;1 mA
1243.46;-0.870056;1240;1241;-0.000499969;1 mA
1245.46;-0.870361;1242;1243;-0.000500031;1 mA
1247.46;-0.870361;1244;1245;-0.0005;1 mA
1249.46;-0.870361;1246;1247;-0.0005;1 mA
1251.46;-0.870361;1248;1249;-0.0005;1 mA
1253.46;-0.870667;1250;1251;-0.000499908;1 mA
1255.46;-0.870667;1252;1253;-0.000499969;1 mA
1257.46;-0.870667;1254;1255;-0.000499969;1 mA
1259.46;-0.870667;1256;1257;-0.000499969;1 mA
1261.46;-0.870667;1258;1259;-0.000499969;1 mA
1263.46;-0.870972;1260;1261;-0.000499908;1 mA
1265.46;-0.870972;1262;1263;-0.000499969;1 mA
1267.46;-0.870972;1264;1265;-0.0005;1 mA
1269.46;-0.870972;1266;1267;-0.000499939;1 mA
1271.46;-0.870972;1268;1269;-0.000499969;1 mA
1273.46;-0.871277;1270;1271;-0.0005;1 mA
1275.46;-0.871277;1272;1273;-0.000499878;1 mA
1277.46;-0.871277;1274;1275;-0.000499908;1 mA
1279.46;-0.871277;1276;1277;-0.000499939;1 mA
1281.46;-0.871277;1278;1279;-0.000499939;1 mA
1283.46;-0.871582;1280;1281;-0.000499969;1 mA
1285.46;-0.871582;1282;1283;-0.000499939;1 mA
1287.46;-0.871582;1284;1285;-0.000499939;1 mA
1289.46;-0.871582;1286;1287;-0.000499908;1 mA
1291.46;-0.871582;1288;1289;-0.000499969;1 mA
1293.46;-0.871887;1290;1291;-0.000499939;1 mA
1295.46;-0.871887;1292;1293;-0.000499969;1 mA
1297.46;-0.871887;1294;1295;-0.000499969;1 mA
1299.46;-0.871887;1296;1297;-0.000499969;1 mA
1301.46;-0.871887;1298;1299;-0.0005;1 mA
1303.46;-0.872192;1300;1301;-0.0005;1 mA
1305.46;-0.872192;1302;1303;-0.000499847;1 mA
1307.46;-0.872192;1304;1305;-0.000499939;1 mA
1309.46;-0.872192;1306;1307;-0.000499878;1 mA
1311.46;-0.872192;1308;1309;-0.000499969;1 mA
1313.46;-0.872498;1310;1311;-0.0005;1 mA
1315.46;-0.872498;1312;1313;-0.000499908;1 mA
1317.46;-0.872498;1314;1315;-0.0005;1 mA
1319.46;-0.872498;1316;1317;-0.000499878;1 mA
1321.46;-0.872498;1318;1319;-0.000499878;1 mA
1323.46;-0.872803;1320;1321;-0.000499939;1 mA
1325.46;-0.872803;1322;1323;-0.000499969;1 mA
1327.46;-0.872803;1324;1325;-0.000499969;1 mA
1329.46;-0.872803;1326;1327;-0.000499969;1 mA
1331.46;-0.872803;1328;1329;-0.0005;1 mA
1333.46;-0.873108;1330;1331;-0.000499969;1 mA
1335.46;-0.873108;1332;1333;-0.000499939;1 mA
1337.46;-0.873108;1334;1335;-0.000499969;1 mA
1339.46;-0.873108;1336;1337;-0.000499969;1 mA
1341.46;-0.873108;1338;1339;-0.000499908;1 mA
1343.46;-0.873413;1340;1341;-0.000499939;1 mA
1345.46;-0.873413;1342;1343;-0.000499939;1 mA
1347.46;-0.873413;1344;1345;-0.0005;1 mA
1349.46;-0.873413;1346;1347;-0.0005;1 mA
1351.46;-0.873413;1348;1349;-0.0005;1 mA
1353.46;-0.873718;1350;1351;-0.000499878;1 mA
1355.46;-0.873718;1352;1353;-0.000499969;1 mA
1357.46;-0.873718;1354;1355;-0.000499939;1 mA
1359.46;-0.873718;1356;1357;-0.000499969;1 mA
1361.46;-0.874023;1358;1359;-0.000499939;1 mA
1363.46;-0.874023;1360;1361;-0.000499939;1 mA
1365.46;-0.874023;1362;1363;-0.000499939;1 mA
1367.46;-0.874023;1364;1365;-0.0005;1 mA
1369.46;-0.874023;1366;1367;-0.000499939;1 mA
1371.46;-0.874023;1368;1369;-0.000499969;1 mA
1373.46;-0.874329;1370;1371;-0.000499939;1 mA
1375.46;-0.874329;1372;1373;-0.0005;1 mA
1377.46;-0.874329;1374;1375;-0.000499908;1 mA
1379.46;-0.874329;1376;1377;-0.000499908;1 mA
1381.46;-0.874329;1378;1379;-0.000499939;1 mA
1383.46;-0.874634;1380;1381;-0.000499939;1 mA
1385.46;-0.874634;1382;1383;-0.000499969;1 mA
1387.46;-0.874634;1384;1385;-0.000499939;1 mA
1389.46;-0.874634;1386;1387;-0.000499969;1 mA
1391.46;-0.874634;1388;1389;-0.000499939;1 mA
1393.46;-0.874939;1390;1391;-0.000499939;1 mA
1395.46;-0.874939;1392;1393;-0.000499939;1 mA
1397.46;-0.874939;1394;1395;-0.000499908;1 mA
1399.46;-0.874939;1396;1397;-0.000499939;1 mA
1401.46;-0.874939;1398;1399;-0.000499939;1 mA
1403.46;-0.875244;1400;1401;-0.000499939;1 mA
1405.46;-0.875244;1402;1403;-0.000499939;1 mA
1407.46;-0.875244;1404;1405;-0.0005;1 mA
1409.46;-0.875244;1406;1407;-0.000499878;1 mA
1411.46;-0.875244;1408;1409;-0.000499969;1 mA
1413.46;-0.875549;1410;1411;-0.000499969;1 mA
1415.46;-0.875549;1412;1413;-0.000499908;1 mA
1417.46;-0.875549;1414;1415;-0.0005;1 mA
1419.46;-0.875549;1416;1417;-0.000499908;1 mA
1421.46;-0.875549;1418;1419;-0.000499908;1 mA
1423.46;-0.875854;1420;1421;-0.000499939;1 mA
1425.46;-0.875854;1422;1423;-0.0005;1 mA
1427.46;-0.875854;1424;1425;-0.000499908;1 mA
1429.46;-0.875854;1426;1427;-0.000499969;1 mA
1431.46;-0.875854;1428;1429;-0.000499939;1 mA
1433.46;-0.87616;1430;1431;-0.000499939;1 mA
1435.46;-0.87616;1432;1433;-0.000499939;1 mA
1437.46;-0.87616;1434;1435;-0.000499939;1 mA
1439.46;-0.87616;1436;1437;-0.0005;1 mA
1441.46;-0.87616;1438;1439;-0.000499939;1 mA
1443.46;-0.876465;1440;1441;-0.000499969;1 mA
1445.46;-0.876465;1442;1443;-0.000499939;1 mA
1447.46;-0.876465;1444;1445;-0.000499908;1 mA
1449.46;-0.876465;1446;1447;-0.000499878;1 mA
1451.46;-0.876465;1448;1449;-0.000499969;1 mA
1453.46;-0.87677;1450;1451;-0.000499939;1 mA
1455.46;-0.87677;1452;1453;-0.000499969;1 mA
1457.46;-0.87677;1454;1455;-0.000499908;1 mA
1459.46;-0.87677;1456;1457;-0.000499939;1 mA
1461.46;-0.87677;1458;1459;-0.000499939;1 mA
1463.46;-0.877075;1460;1461;-0.000499939;1 mA
1465.46;-0.877075;1462;1463;-0.000499939;1 mA
1467.46;-0.877075;1464;1465;-0.0005;1 mA
1469.46;-0.877075;1466;1467;-0.000499969;1 mA
1471.46;-0.877075;1468;1469;-0.000499939;1 mA
1473.46;-0.87738;1470;1471;-0.000499969;1 mA
1475.46;-0.87738;1472;1473;-0.000499939;1 mA
1477.46;-0.87738;1474;1475;-0.0005;1 mA
1479.46;-0.87738;1476;1477;-0.0005;1 mA
1481.46;-0.87738;1478;1479;-0.000499939;1 mA
1483.46;-0.877686;1480;1481;-0.000499908;1 mA
1485.46;-0.877686;1482;1483;-0.000499908;1 mA
1487.46;-0.877686;1484;1485;-0.000499817;1 mA
1489.46;-0.877686;1486;1487;-0.000499908;1 mA
1491.46;-0.877686;1488;1489;-0.000499847;1 mA
1493.46;-0.877991;1490;1491;-0.000499908;1 mA
1495.46;-0.877991;1492;1493;-0.000499878;1 mA
1497.46;-0.877991;1494;1495;-0.0005;1 mA
1499.46;-0.877991;1496;1497;-0.000499908;1 mA
1501.46;-0.877991;1498;1499;-0.000499908;1 mA
1503.46;-0.877991;1500;1501;-0.000499878;1 mA
1505.46;-0.878296;1502;1503;-0.0005;1 mA
1507.46;-0.878296;1504;1505;-0.000499908;1 mA
1509.46;-0.878296;1506;1507;-0.0005;1 mA
1511.46;-0.878296;1508;1509;-0.000499908;1 mA
1513.46;-0.878296;1510;1511;-0.000499939;1 mA
1515.46;-0.878601;1512;1513;-0.000499969;1 mA
1517.46;-0.878601;1514;1515;-0.000499939;1 mA
1519.46;-0.878601;1516;1517;-0.000499939;1 mA
1521.46;-0.878601;1518;1519;-0.000499939;1 mA
1523.46;-0.878601;1520;1521;-0.000499908;1 mA
1525.46;-0.878906;1522;1523;-0.000499939;1 mA
1527.46;-0.878906;1524;1525;-0.000499939;1 mA
1529.46;-0.878906;1526;1527;-0.000499969;1 mA
1531.46;-0.878906;1528;1529;-0.000499878;1 mA
1533.46;-0.878906;1530;1531;-0.000499939;1 mA
1535.46;-0.879211;1532;1533;-0.000499908;1 mA
1537.46;-0.879211;1534;1535;-0.000499939;1 mA
1539.46;-0.879211;1536;1537;-0.000499908;1 mA
1541.46;-0.879211;1538;1539;-0.000499878;1 mA
1543.46;-0.879211;1540;1541;-0.000499939;1 mA
1545.46;-0.879211;1542;1543;-0.000499939;1 mA
1547.46;-0.879517;1544;1545;-0.000499908;1 mA
1549.46;-0.879517;1546;1547;-0.000499939;1 mA
1551.46;-0.879517;1548;1549;-0.000499908;1 mA
1553.46;-0.879517;1550;1551;-0.000499908;1 mA
1555.46;-0.879517;1552;1553;-0.000499939;1 mA
1557.46;-0.879822;1554;1555;-0.000499908;1 mA
1559.46;-0.879822;1556;1557;-0.000499939;1 mA
1561.46;-0.879822;1558;1559;-0.000499969;1 mA
1563.46;-0.879822;1560;1561;-0.000499847;1 mA
1565.46;-0.879822;1562;1563;-0.000499908;1 mA
1567.46;-0.879822;1564;1565;-0.000499939;1 mA
1569.46;-0.880127;1566;1567;-0.000499908;1 mA
1571.46;-0.880127;1568;1569;-0.000499969;1 mA
1573.46;-0.880127;1570;1571;-0.000499878;1 mA
1575.46;-0.880127;1572;1573;-0.000499908;1 mA
1577.46;-0.880127;1574;1575;-0.000499878;1 mA
1579.46;-0.880432;1576;1577;-0.000499847;1 mA
1581.46;-0.880432;1578;1579;-0.000499908;1 mA
1583.46;-0.880432;1580;1581;-0.0005;1 mA
1585.46;-0.880432;1582;1583;-0.000499939;1 mA
1587.46;-0.880432;1584;1585;-0.000499908;1 mA
1589.46;-0.880432;1586;1587;-0.000499939;1 mA
1591.46;-0.880737;1588;1589;-0.000499939;1 mA
1593.46;-0.880737;1590;1591;-0.000499908;1 mA
1595.46;-0.880737;1592;1593;-0.000499969;1 mA
1597.46;-0.880737;1594;1595;-0.000499939;1 mA
1599.46;-0.880737;1596;1597;-0.000499908;1 mA
1601.46;-0.881042;1598;1599;-0.000499908;1 mA
1603.46;-0.881042;1600;1601;-0.000499939;1 mA
1605.46;-0.881042;1602;1603;-0.000499939;1 mA
1607.46;-0.881042;1604;1605;-0.000499908;1 mA
1609.46;-0.881042;1606;1607;-0.000499908;1 mA
1611.46;-0.881042;1608;1609;-0.000499878;1 mA
1613.46;-0.881348;1610;1611;-0.0005;1 mA
1615.46;-0.881348;1612;1613;-0.000499939;1 mA
1617.46;-0.881348;1614;1615;-0.000499908;1 mA
1619.46;-0.881348;1616;1617;-0.000499969;1 mA
1621.46;-0.881348;1618;1619;-0.000499969;1 mA
1623.46;-0.881348;1620;1621;-0.000499908;1 mA
1625.46;-0.881653;1622;1623;-0.000499939;1 mA
1627.46;-0.881653;1624;1625;-0.000499939;1 mA
1629.46;-0.881653;1626;1627;-0.000499969;1 mA
1631.46;-0.881653;1628;1629;-0.000499908;1 mA
1633.46;-0.881653;1630;1631;-0.000499939;1 mA
1635.46;-0.881958;1632;1633;-0.000499969;1 mA
1637.46;-0.881958;1634;1635;-0.000499878;1 mA
1639.46;-0.881958;1636;1637;-0.000499878;1 mA
1641.46;-0.881958;1638;1639;-0.000499908;1 mA
1643.46;-0.881958;1640;1641;-0.000499878;1 mA
1645.46;-0.881958;1642;1643;-0.000499908;1 mA
1647.46;-0.882263;1644;1645;-0.000499908;1 mA
1649.46;-0.882263;1646;1647;-0.000499969;1 mA
1651.46;-0.882263;1648;1649;-0.000499939;1 mA
1653.46;-0.882263;1650;1651;-0.000499939;1 mA
1655.46;-0.882263;1652;1653;-0.000499878;1 mA
1657.46;-0.882263;1654;1655;-0.000499908;1 mA
1659.46;-0.882568;1656;1657;-0.000499969;1 mA
1661.46;-0.882568;1658;1659;-0.000499969;1 mA
1663.46;-0.882568;1660;1661;-0.000499939;1 mA
1665.46;-0.882568;1662;1663;-0.0005;1 mA
1667.46;-0.882568;1664;1665;-0.000499939;1 mA
1669.46;-0.882568;1666;1667;-0.000499908;1 mA
1671.46;-0.882874;1668;1669;-0.000499969;1 mA
1673.46;-0.882874;1670;1671;-0.000499908;1 mA
1675.46;-0.882874;1672;1673;-0.000499878;1 mA
1677.46;-0.882874;1674;1675;-0.000499908;1 mA
1679.46;-0.882874;1676;1677;-0.000499939;1 mA
1681.46;-0.883179;1678;1679;-0.000499847;1 mA
1683.46;-0.883179;1680;1681;-0.000499878;1 mA
1685.46;-0.883179;1682;1683;-0.000499969;1 mA
1687.46;-0.883179;1684;1685;-0.000499969;1 mA
1689.46;-0.883179;1686;1687;-0.000499939;1 mA
1691.46;-0.883179;1688;1689;-0.000499939;1 mA
1693.46;-0.883484;1690;1691;-0.0005;1 mA
1695.46;-0.883484;1692;1693;-0.000499908;1 mA
1697.46;-0.883484;1694;1695;-0.000499908;1 mA
1699.46;-0.883484;1696;1697;-0.000499908;1 mA
1701.46;-0.883484;1698;1699;-0.000499908;1 mA
1703.46;-0.883484;1700;1701;-0.000499969;1 mA
1705.46;-0.883789;1702;1703;-0.000499908;1 mA
1707.46;-0.883789;1704;1705;-0.000499939;1 mA
1709.46;-0.883789;1706;1707;-0.000499908;1 mA
1711.46;-0.883789;1708;1709;-0.000499969;1 mA
1713.46;-0.883789;1710;1711;-0.000499969;1 mA
1715.46;-0.883789;1712;1713;-0.000499939;1 mA
1717.46;-0.884094;1714;1715;-0.000499939;1 mA
1719.46;-0.884094;1716;1717;-0.000499878;1 mA
1721.46;-0.884094;1718;1719;-0.000499939;1 mA
1723.46;-0.884094;1720;1721;-0.000499939;1 mA
1725.46;-0.884094;1722;1723;-0.000499939;1 mA
1727.46;-0.884094;1724;1725;-0.000499817;1 mA
1729.46;-0.884399;1726;1727;-0.0005;1 mA
1731.46;-0.884399;1728;1729;-0.000499908;1 mA
1733.46;-0.884399;1730;1731;-0.000499939;1 mA
1735.46;-0.884399;1732;1733;-0.000499939;1 mA
1737.46;-0.884399;1734;1735;-0.000499939;1 mA
1739.46;-0.884399;1736;1737;-0.0005;1 mA
1741.46;-0.884705;1738;1739;-0.0005;1 mA
1743.46;-0.884705;1740;1741;-0.000499969;1 mA
1745.46;-0.884705;1742;1743;-0.000499878;1 mA
1747.46;-0.884705;1744;1745;-0.000499878;1 mA
1749.46;-0.884705;1746;1747;-0.000499908;1 mA
1751.46;-0.884705;1748;1749;-0.000499908;1 mA
1753.46;-0.88501;1750;1751;-0.000499969;1 mA
1755.46;-0.88501;1752;1753;-0.000499908;1 mA
1757.46;-0.88501;1754;1755;-0.000499969;1 mA
1759.46;-0.88501;1756;1757;-0.000499939;1 mA
1761.46;-0.88501;1758;1759;-0.0005;1 mA
1763.46;-0.88501;1760;1761;-0.0005;1 mA
1765.46;-0.88501;1762;1763;-0.000499908;1 mA
1767.46;-0.885315;1764;1765;-0.000499939;1 mA
1769.46;-0.885315;1766;1767;-0.000499847;1 mA
1771.46;-0.885315;1768;1769;-0.000499908;1 mA
1773.46;-0.885315;1770;1771;-0.000499878;1 mA
1775.46;-0.885315;1772;1773;-0.000499969;1 mA
1777.46;-0.885315;1774;1775;-0.000499969;1 mA
1779.46;-0.88562;1776;1777;-0.000499969;1 mA
1781.46;-0.88562;1778;1779;-0.000499908;1 mA
1783.46;-0.88562;1780;1781;-0.000499969;1 mA
1785.46;-0.88562;1782;1783;-0.000499878;1 mA
1787.46;-0.88562;1784;1785;-0.000499878;1 mA
1789.46;-0.88562;1786;1787;-0.000499969;1 mA
1791.46;-0.88562;1788;1789;-0.000499878;1 mA
1793.46;-0.885925;1790;1791;-0.0005;1 mA
1795.46;-0.885925;1792;1793;-0.000499908;1 mA
1797.46;-0.885925;1794;1795;-0.000499878;1 mA
1799.46;-0.885925;1796;1797;-0.000499969;1 mA
1801.46;-0.885925;1798;1799;-0.000499969;1 mA
1802.46;-0.885925;1799;1800;-0.000499939;1 mA